time,Pelvis_Acc_X,Pelvis_Acc_Y,Pelvis_Acc_Z,Pelvis_Gyr_X,Pelvis_Gyr_Y,Pelvis_Gyr_Z,Thigh_L_Acc_X,Thigh_L_Acc_Y,Thigh_L_Acc_Z,Thigh_L_Gyr_X,Thigh_L_Gyr_Y,Thigh_L_Gyr_Z,Thigh_R_Acc_X,Thigh_R_Acc_Y,Thigh_R_Acc_Z,Thigh_R_Gyr_X,Thigh_R_Gyr_Y,Thigh_R_Gyr_Z,gpio_output
0.014124870300292969,-9.651026892089844,0.14125789794921875,-1.8195932617187498,-1.7709923664122138,0.8549618320610687,-0.6717557251908397,-9.744400756835937,-0.3016694091796875,-0.2753331909179687,-0.3511450381679389,-1.1908396946564885,-0.6259541984732825,-9.770736975097655,0.7637503295898437,-0.24899697265624998,0.8396946564885496,-0.7480916030534351,0.4122137404580153,0
0.020002126693725586,-9.677363110351562,0.1771709228515625,-1.7860744384765623,-2.0916030534351147,0.48854961832061067,-0.3816793893129771,-9.672574707031249,-0.20829554443359374,-0.3447650390625,-0.3511450381679389,-1.3435114503816794,-0.4580152671755725,-9.816226806640625,0.7613561279296874,-0.28490999755859375,0.15267175572519084,-0.7175572519083969,0.549618320610687,0
0.030002593994140625,-9.720458740234374,0.17956512451171874,-1.8315642700195311,-1.6793893129770991,0.6870229007633588,-0.12213740458015267,-9.79946739501953,-0.28490999755859375,-0.3136404174804687,-1.5419847328244274,-1.7557251908396947,-0.32061068702290074,-9.631873278808593,0.737414111328125,-0.30406361083984373,-0.9312977099236641,-0.16793893129770993,0.3969465648854962,0
0.04000282287597656,-9.643844287109374,0.2561795776367187,-1.8411410766601561,-1.6488549618320612,0.6259541984732825,-0.3511450381679389,-9.83777462158203,-0.143652099609375,-0.21787235107421873,-0.5954198473282443,-1.2366412213740459,-0.9007633587786259,-9.588777648925781,0.7302315063476562,-0.3591302490234375,-0.07633587786259542,-1.0534351145038168,0.42748091603053434,0
0.050002098083496094,-9.706093530273437,0.18435352783203124,-1.8650830932617186,-1.4045801526717556,0.4580152671755725,-0.42748091603053434,-9.725247143554688,-0.36152445068359373,-0.2657563842773437,-0.1984732824427481,-0.6870229007633588,-0.5648854961832062,-9.737218151855469,0.45489831542968745,-0.296881005859375,-0.10687022900763359,-0.9465648854961832,0.7480916030534351,0
0.060003042221069336,-9.56962403564453,0.15322890625,-1.838746875,-1.1450381679389312,0.7022900763358778,-0.4122137404580153,-9.658209497070311,-0.354341845703125,-0.3064578125,-0.5038167938931297,-0.9618320610687023,-0.16793893129770993,-9.909600671386718,0.6727706665039062,-0.258573779296875,0.16793893129770993,-0.42748091603053434,0.44274809160305345,0
0.07000207901000977,-9.641450085449218,0.22505495605468748,-1.8555062866210936,-1.0381679389312977,0.916030534351145,-0.6564885496183206,-9.639055883789062,-0.2920926025390625,-0.28012159423828126,-0.4732824427480916,-0.42748091603053434,-0.22900763358778625,-9.835380419921874,0.6057330200195312,-0.09337386474609374,0.5038167938931297,-1.0534351145038168,0.3816793893129771,0
0.0800020694732666,-9.665392102050781,0.15083470458984374,-1.8746598999023436,-1.0229007633587786,0.6564885496183206,-0.6564885496183206,-9.593566052246093,-0.4285620971679687,-0.2705447875976562,-0.42748091603053434,-0.2595419847328244,-0.16793893129770993,-9.878476049804688,0.5219359619140624,-0.2705447875976562,0.6717557251908397,-0.6717557251908397,0.366412213740458,0
0.09000182151794434,-9.76116016845703,0.1484405029296875,-1.7741034301757812,-0.5954198473282443,0.8396946564885496,-0.5038167938931297,-10.024522351074218,-0.18914193115234373,-0.0718260498046875,-1.7404580152671756,-0.4732824427480916,-0.8702290076335878,-9.931148486328125,0.19393033447265623,-0.13168109130859373,1.5114503816793894,-0.5954198473282443,0.5648854961832062,0
0.10000348091125488,-9.689334118652344,0.12210428466796874,-1.9680337646484374,-0.3969465648854962,0.16793893129770993,-0.10687022900763359,-9.641450085449218,-0.07422025146484375,0.1771709228515625,-0.7022900763358778,-0.015267175572519083,-1.0229007633587786,-9.689334118652344,0.36631285400390623,-0.1197100830078125,-0.24427480916030533,0.07633587786259542,0.5648854961832062,0
0.11000180244445801,-9.897629663085937,0.05746083984375,-1.707065783691406,0.030534351145038167,-1.5419847328244274,0.3969465648854962,-10.69968721923828,0.5291185668945312,0.17238251953125,-10.0,-2.1068702290076335,-1.2366412213740459,-9.926360083007811,-0.040701428222656245,0.3016694091796875,2.122137404580153,-0.21374045801526717,-0.10687022900763359,0
0.12000393867492676,-12.34689796142578,0.5458779785156249,-1.8435352783203125,0.5954198473282443,-9.236641221374045,1.2213740458015268,-11.295843432617186,4.139574670410156,-0.086191259765625,-42.56488549618321,-13.465648854961833,-0.7786259541984732,-10.733206042480468,-2.166752502441406,1.180341418457031,12.396946564885496,-3.9083969465648853,1.0687022900763359,0
0.13000202178955078,-11.942277880859374,0.4165910888671875,-1.6711527587890624,1.3129770992366412,-23.19083969465649,-0.24427480916030533,-10.374075793457031,-0.29448680419921874,-0.1388636962890625,-49.49618320610687,-21.801526717557252,3.267175572519084,-10.797849487304687,-2.4947581298828125,0.55545478515625,27.908396946564885,-18.9618320610687,-2.3206106870229006,0
0.14000320434570312,-11.137826123046874,0.6009446166992187,-2.0733786376953125,1.4351145038167938,-33.87786259541985,0.8244274809160306,-9.555258825683593,-2.8371289672851563,0.26336218261718747,-34.51908396946565,-21.328244274809162,4.717557251908397,-10.347739575195313,-0.6679822631835937,-0.5099649536132812,52.93129770992366,-25.786259541984734,-11.007633587786259,0
0.15000152587890625,-9.382876306152344,-0.181959326171875,-1.9608511596679685,0.9618320610687023,-37.98473282442748,3.7099236641221376,-9.102754711914063,-2.7820623291015623,-0.11013327636718749,-19.419847328244273,-20.564885496183205,2.8091603053435112,-9.284714038085937,3.0430303100585934,-0.5434837768554687,23.282442748091604,-24.732824427480917,-15.633587786259541,0
0.1600043773651123,-8.858546142578124,0.7206546997070312,-1.0726023437499999,-1.4961832061068703,-34.0,1.7404580152671756,-9.354145886230468,-2.923320227050781,-0.6536170532226562,-6.564885496183206,-17.557251908396946,2.030534351145038,-8.635885388183594,2.829946362304687,-0.6703764648437499,20.763358778625953,-22.50381679389313,-11.312977099236642,0
0.17000150680541992,-7.716511950683593,0.8810662109374999,-1.5059528442382812,-1.5572519083969465,-24.885496183206108,1.786259541984733,-8.817844714355468,-1.7501614135742187,-0.18435352783203124,8.748091603053435,-10.366412213740459,-0.10687022900763359,-9.248801013183593,3.172317199707031,-0.8762778076171874,16.717557251908396,-18.015267175572518,-5.297709923664122,0
0.18000459671020508,-7.474697583007812,0.4644751220703125,-0.8092401611328125,-1.83206106870229,-10.50381679389313,2.198473282442748,-10.034099157714843,0.74699091796875,0.12449848632812499,10.061068702290076,-3.0839694656488548,-2.900763358778626,-8.420407238769531,4.163516687011718,-1.637633935546875,-6.793893129770993,-8.65648854961832,-4.0,0
0.1900017261505127,-8.17141026611328,-0.13407529296874998,-0.928950244140625,-2.717557251908397,3.954198473282443,-1.2061068702290076,-9.414000927734374,0.2537853759765625,-0.25139117431640623,7.419847328244275,0.7938931297709924,-0.9770992366412213,-9.708487731933593,0.34237083740234375,-0.33518823242187495,-23.587786259541986,3.0839694656488548,5.435114503816794,0
0.20000362396240234,-9.490615380859374,0.4525041137695312,-1.4221557861328125,-1.3282442748091603,6.641221374045801,-1.7404580152671756,-9.785102185058593,1.1109095703125,-0.4644751220703125,-2.4427480916030535,-1.8778625954198473,1.0687022900763359,-9.392453112792968,0.42377369384765623,-1.22583125,-2.198473282442748,1.7404580152671756,5.221374045801527,0
0.21000218391418457,-9.983820922851562,-0.4908113403320312,-1.8243816650390623,0.9007633587786259,6.5038167938931295,-0.6412213740458015,-9.916783276367187,0.5961562133789062,-0.49799394531249996,-4.5038167938931295,-1.5877862595419847,-0.5343511450381679,-8.645462194824217,1.24498486328125,-1.1516109985351561,1.3893129770992367,6.931297709923665,0.6870229007633588,0
0.22000408172607422,-10.414777221679687,0.009576806640625,-1.6831237670898436,1.099236641221374,3.0076335877862594,-1.8015267175572518,-9.354145886230468,-0.8643067993164062,-0.5147533569335937,-4.961832061068702,-2.16793893129771,0.9618320610687023,-9.3086560546875,-0.2825157958984375,-1.0702081420898437,16.442748091603054,4.595419847328245,0.6870229007633588,0
0.23000216484069824,-9.694122521972655,0.12449848632812499,-2.147598889160156,1.8625954198473282,0.8244274809160306,0.15267175572519084,-9.502586389160156,-0.8068459594726562,-0.143652099609375,1.5267175572519085,-0.030534351145038167,-1.1145038167938932,-9.208099584960937,1.3670891479492187,-0.7637503295898437,1.5877862595419847,4.656488549618321,0.030534351145038167,0
0.2400040626525879,-10.103531005859374,0.201112939453125,-1.4221557861328125,0.4580152671755725,0.5954198473282443,-0.8702290076335878,-9.823409411621093,-0.814028564453125,-0.08140285644531249,0.9770992366412213,-0.33587786259541985,-1.3282442748091603,-10.328585961914062,-0.5003881469726562,0.24660277099609373,-2.33587786259542,3.099236641221374,1.83206106870229,0
0.2500021457672119,-9.476250170898437,0.8738836059570312,-1.7645266235351562,-0.6259541984732825,0.5954198473282443,-0.22900763358778625,-9.737218151855469,-1.0390835205078124,0.5458779785156249,14.549618320610687,5.526717557251908,-2.854961832061069,-9.991003527832031,0.3280056274414062,0.2920926025390625,1.5725190839694656,0.07633587786259542,1.3282442748091603,0
0.26000308990478516,-9.72285294189453,0.4860229370117187,-1.4006079711914061,-1.3893129770992367,0.8549618320610687,1.083969465648855,-9.138667736816405,-0.34237083740234375,0.19153613281249998,12.51908396946565,5.770992366412214,-2.3053435114503817,-10.101136804199218,0.5386953735351562,-0.01915361328125,4.854961832061068,-0.030534351145038167,-1.4198473282442747,0
0.2700023651123047,-10.05564697265625,0.45968671875,-1.4604630126953124,-2.8091603053435112,-0.32061068702290074,0.8702290076335878,-10.371681591796875,1.6041151123046875,0.13407529296874998,-2.687022900763359,-0.04580152671755725,-1.4809160305343512,-9.758765966796874,0.9959878906249999,-0.023942016601562498,-0.04580152671755725,-1.0076335877862594,0.24427480916030533,0
0.28000378608703613,-9.543287817382812,0.13407529296874998,-1.7980454467773437,-2.7786259541984735,-1.450381679389313,-0.2900763358778626,-9.502586389160156,-1.01514150390625,0.0143652099609375,-1.6793893129770991,0.16793893129770993,0.22900763358778625,-9.533711010742186,1.1827356201171875,0.009576806640625,-2.6106870229007635,-1.4045801526717556,1.297709923664122,0
0.29000258445739746,-9.619902270507811,-0.01915361328125,-1.6136919189453125,-1.282442748091603,-1.3740458015267176,0.04580152671755725,-9.459490759277344,-0.7637503295898437,-0.0430956298828125,2.6412213740458017,0.8396946564885496,0.2900763358778626,-9.68454571533203,0.6512228515624999,-0.08379705810546874,0.2900763358778626,-0.21374045801526717,1.3129770992366412,0
0.3000044822692871,-9.567229833984374,-0.13646949462890623,-1.6136919189453125,-0.4580152671755725,-0.5343511450381679,-0.3053435114503817,-9.86411083984375,-0.023942016601562498,-0.08379705810546874,1.2366412213740459,-0.10687022900763359,-0.6870229007633588,-9.533711010742186,0.7422025146484375,-0.30885201416015623,0.22900763358778625,-0.3511450381679389,0.8091603053435115,0
0.31000208854675293,-9.636661682128906,0.040701428222656245,-1.5586252807617187,0.22900763358778625,-0.21374045801526717,-0.13740458015267176,-9.698910925292969,-0.296881005859375,0.062249243164062495,-0.42748091603053434,-1.0534351145038168,-0.7938931297709924,-9.545682019042967,0.8978256225585937,-0.3591302490234375,3.648854961832061,0.6717557251908397,0.4732824427480916,0
0.3200035095214844,-9.361328491210937,0.09816226806640624,-1.5801730957031248,0.8091603053435115,0.8091603053435115,0.2595419847328244,-9.610325463867188,-0.373495458984375,0.181959326171875,-0.24427480916030533,-1.3435114503816794,-0.7022900763358778,-9.648632690429688,1.2737152832031249,-0.7637503295898437,-2.198473282442748,1.5572519083969465,0.4732824427480916,0
0.3300018310546875,-9.363722692871093,0.01915361328125,-1.4628572143554686,1.1908396946564885,4.564885496183206,-0.22900763358778625,-9.81862100830078,0.07900865478515624,0.26815058593749996,-1.3129770992366412,-1.297709923664122,-0.7175572519083969,-9.481038574218749,1.3096283081054687,-0.8786720092773437,-8.183206106870228,6.931297709923665,2.732824427480916,0
0.34000229835510254,-9.627084875488281,-0.00718260498046875,-1.707065783691406,2.519083969465649,6.549618320610687,-0.8396946564885496,-9.708487731933593,-0.35194764404296874,0.15562310791015624,-2.763358778625954,-1.8015267175572518,0.21374045801526717,-9.287108239746093,1.1348515869140625,-0.09816226806640624,-14.900763358778626,10.259541984732824,5.694656488549619,0
0.3500022888183594,-9.670180505371093,-0.023942016601562498,-2.013523596191406,3.4656488549618323,6.961832061068702,-0.6259541984732825,-9.706093530273437,-0.47884033203125,0.16041151123046873,-0.7938931297709924,-1.8473282442748091,0.21374045801526717,-9.72285294189453,-0.2154781494140625,0.3064578125,-7.877862595419847,11.114503816793894,6.458015267175573,0
0.3600032329559326,-9.861716638183593,0.24899697265624998,-1.5346832641601562,3.7404580152671754,5.8320610687022905,-0.7022900763358778,-9.6917283203125,-0.5147533569335937,0.1388636962890625,0.5190839694656488,-2.122137404580153,0.4122137404580153,-10.87206973876953,-1.5418658691406248,-0.076614453125,-11.16030534351145,10.030534351145038,5.419847328244275,0
0.37000203132629395,-9.648632690429688,0.22505495605468748,-1.9823989746093749,3.7709923664122136,3.954198473282443,-0.6564885496183206,-9.651026892089844,-0.6727706665039062,0.1005564697265625,2.33587786259542,-2.33587786259542,-0.12213740458015267,-9.485826977539062,1.3287819213867187,0.6440402465820312,2.8396946564885495,4.717557251908397,1.6793893129770991,0
0.3800022602081299,-9.804255798339844,0.12449848632812499,-1.7549498168945312,3.3740458015267176,3.801526717557252,-0.5648854961832062,-9.660603698730467,-0.51714755859375,0.19871873779296872,4.198473282442748,-2.0,-0.4732824427480916,-10.244788903808594,0.5674257934570313,0.8667010009765624,0.8396946564885496,3.648854961832061,1.7709923664122138,0
0.3900017738342285,-9.947907897949218,0.34715924072265625,-1.7310078002929687,2.2900763358778624,2.198473282442748,-0.44274809160305345,-9.555258825683593,-1.2689268798828124,-0.1005564697265625,7.312977099236641,-1.5114503816793894,-0.07633587786259542,-11.195286962890624,-1.2593500732421874,1.216254443359375,6.625954198473282,1.1755725190839694,2.931297709923664,0
0.40000414848327637,-9.153032946777342,0.8116343627929687,-1.9608511596679685,1.2061068702290076,2.16793893129771,0.15267175572519084,-8.734047656249999,-2.4013842651367185,-0.0143652099609375,20.763358778625953,3.053435114503817,-0.366412213740458,-9.682151513671874,0.8930372192382812,0.1388636962890625,8.305343511450381,-0.6259541984732825,-1.7251908396946565,0
0.4100015163421631,-9.548076220703125,0.5793968017578125,-1.2378022583007813,-0.44274809160305345,6.244274809160306,0.5343511450381679,-10.390835205078124,0.28969840087890625,-0.17238251953125,24.137404580152673,7.679389312977099,-3.5114503816793894,-10.249577307128906,0.5626373901367188,0.0,4.717557251908397,-1.6793893129770991,-2.717557251908397,0
0.4200015068054199,-9.445125549316407,0.6560112548828124,-1.7190367919921874,-2.5801526717557253,6.870229007633588,-0.0916030534351145,-9.253589416503905,0.7350199096679687,-0.3447650390625,17.49618320610687,5.419847328244275,-2.8244274809160306,-10.084377392578125,0.9313444458007812,0.11731588134765625,6.259541984732825,-1.8931297709923665,-1.282442748091603,0
0.43000197410583496,-9.897629663085937,0.6105214233398437,-1.6543933471679686,-3.648854961832061,7.282442748091603,-0.0,-10.500968481445312,0.9217676391601562,0.32561142578124996,9.770992366412214,7.282442748091603,-2.717557251908397,-9.873687646484374,0.9864110839843749,-0.4572925170898437,3.5267175572519083,-2.9923664122137406,-1.3740458015267176,0
0.4400019645690918,-9.981426721191406,0.2705447875976562,-1.659181750488281,-3.7404580152671754,7.022900763358779,-0.04580152671755725,-10.800243688964843,1.6112977172851561,0.29448680419921874,1.6641221374045803,4.687022900763359,-2.519083969465649,-9.995791931152343,1.0606313354492187,-0.5243301635742187,2.5801526717557253,-2.0763358778625953,-1.0381679389312977,0
0.45000219345092773,-9.138667736816405,-0.02633621826171875,-1.9919757812499999,-3.7251908396946565,7.251908396946565,-0.13740458015267176,-10.505756884765624,1.369483349609375,0.6488286499023437,-1.1755725190839694,4.99236641221374,-2.198473282442748,-7.6087728759765625,3.469198205566406,-1.4101847778320311,-16.244274809160306,0.6412213740458015,-1.3893129770992367,0
0.4600036144256592,-10.137049829101562,-0.4740519287109375,-1.0630255371093749,-2.6717557251908395,8.625954198473282,-1.083969465648855,-10.096348400878906,0.5123591552734374,0.1484405029296875,-10.977099236641221,0.8091603053435115,0.44274809160305345,-9.969455712890625,0.16759411621093748,-0.8858546142578124,-22.076335877862597,7.511450381679389,4.198473282442748,0
0.4700019359588623,-9.677363110351562,0.05027823486328125,-2.003946789550781,-1.282442748091603,8.931297709923664,-2.2748091603053435,-9.816226806640625,-0.6177040283203125,0.46686932373046874,-3.068702290076336,2.030534351145038,-0.42748091603053434,-9.832986218261718,0.0383072265625,0.5626373901367188,-9.618320610687023,6.3816793893129775,6.5038167938931295,0
0.48000335693359375,-10.383652600097655,0.040701428222656245,-1.89620771484375,0.6412213740458015,4.564885496183206,-0.9770992366412213,-10.120290417480469,0.2442085693359375,0.2442085693359375,-11.145038167938932,-2.198473282442748,0.061068702290076333,-10.283096130371094,-0.4261678955078125,-0.3232172241210937,1.6488549618320612,0.12213740458015267,2.183206106870229,0
0.4900021553039551,-10.026916552734374,0.05027823486328125,-1.9225439331054686,-0.5343511450381679,3.3587786259541983,-0.9312977099236641,-9.9981861328125,-0.8978256225585937,0.22026655273437498,-5.068702290076335,-1.6793893129770991,-0.8091603053435115,-10.328585961914062,-0.201112939453125,0.06703764648437499,-2.564885496183206,1.2671755725190839,0.9007633587786259,0
0.5000033378601074,-9.885658654785155,0.7278373046875,-1.714248388671875,-1.5877862595419847,-0.4122137404580153,-0.5343511450381679,-9.3086560546875,-1.695094775390625,-0.11731588134765625,-2.183206106870229,-2.183206106870229,0.44274809160305345,-9.576806640625,1.189918225097656,-0.14125789794921875,4.931297709923665,0.5343511450381679,-1.2671755725190839,0
0.5100018978118896,-9.667786303710937,0.5746083984375,-1.4173673828125,-2.7022900763358777,0.3816793893129771,0.549618320610687,-9.639055883789062,-0.38786066894531246,-0.0047884033203125,1.6946564885496183,-1.0534351145038168,-1.0229007633587786,-9.892841259765625,1.0031704956054688,-0.181959326171875,-5.358778625954199,1.450381679389313,-1.2061068702290076,0
0.5200035572052002,-9.706093530273437,0.6751648681640625,-1.5562310791015623,-3.7557251908396947,0.3511450381679389,-0.0916030534351145,-9.751583361816406,-0.16759411621093748,-0.20350714111328125,0.030534351145038167,-0.916030534351145,-0.9923664122137404,-9.8449572265625,0.7517793212890624,-0.28969840087890625,-5.343511450381679,-0.732824427480916,0.015267175572519083,0
0.5300021171569824,-9.634267480468749,0.49320554199218747,-1.5275006591796874,-4.763358778625954,1.2671755725190839,-0.8091603053435115,-9.536105212402344,-0.28969840087890625,-0.1771709228515625,-0.8396946564885496,-0.6564885496183206,-0.732824427480916,-10.007762939453125,0.34715924072265625,-0.22744915771484372,-4.67175572519084,-1.3282442748091603,0.3816793893129771,0
0.5400035381317139,-9.514557397460937,0.36391865234375,-1.5394716674804687,-4.824427480916031,1.8931297709923665,-0.9007633587786259,-9.540893615722656,-0.7781155395507812,-0.45010991210937495,0.21374045801526717,-0.5038167938931297,-0.21374045801526717,-9.868899243164062,0.5961562133789062,-0.4333505004882812,-3.4198473282442747,-2.5343511450381677,-0.24427480916030533,0
0.550001859664917,-9.081206896972656,0.16041151123046873,-1.6208745239257811,-5.00763358778626,4.488549618320611,-1.7404580152671756,-8.681375219726561,-2.051830822753906,-0.5434837768554687,14.229007633587786,4.931297709923665,-0.8854961832061069,-9.56962403564453,0.411802685546875,-0.296881005859375,-2.427480916030534,-2.854961832061069,-0.3053435114503817,0
0.5600025653839111,-9.603142858886718,0.2753331909179687,-1.3934253662109375,-4.793893129770993,6.763358778625954,-0.7480916030534351,-9.782707983398437,0.15083470458984374,0.13168109130859373,14.412213740458014,6.488549618320611,-1.7099236641221374,-9.991003527832031,0.26815058593749996,-0.22266075439453123,1.6488549618320612,-2.122137404580153,-0.12213740458015267,0
0.5700027942657471,-9.504980590820312,0.076614453125,-1.6711527587890624,-4.870229007633588,7.511450381679389,-0.9770992366412213,-10.472238061523436,0.3016694091796875,0.033518823242187495,9.893129770992367,5.969465648854962,-2.7938931297709924,-9.612719665527344,0.8858546142578124,-0.7326257080078125,0.6564885496183206,-2.0610687022900764,-1.282442748091603,0
0.5800039768218994,-9.370905297851563,0.09816226806640624,-1.8124106567382812,-4.488549618320611,8.15267175572519,0.0916030534351145,-9.983820922851562,0.028730419921875,-0.26815058593749996,6.33587786259542,4.3816793893129775,-1.7709923664122138,-8.757989672851561,2.7269956909179687,-1.2521674682617188,-7.374045801526718,-0.6717557251908397,-1.9236641221374047,0
0.5900020599365234,-10.101136804199218,0.00239420166015625,-1.5179238525390624,-4.320610687022901,8.961832061068701,-0.9618320610687023,-9.655815295410155,0.2154781494140625,-0.28969840087890625,0.9007633587786259,2.7480916030534353,-0.6717557251908397,-8.865728747558594,0.45968671875,-1.1109095703125,-15.801526717557252,1.5419847328244274,1.618320610687023,0
0.6000020503997803,-9.179369165039063,-0.0430956298828125,-2.389413256835937,-3.572519083969466,8.320610687022901,-0.015267175572519083,-9.629479077148437,0.0383072265625,-0.0718260498046875,-4.366412213740458,1.2671755725190839,-0.4122137404580153,-10.733206042480468,0.814028564453125,-1.936909143066406,-13.221374045801527,10.320610687022901,3.2213740458015265,0
0.6100020408630371,-10.828974108886719,-0.105344873046875,-1.3623007446289062,-1.251908396946565,5.6183206106870225,-0.916030534351145,-9.560047229003906,-0.9816226806640624,-0.35194764404296874,-16.03053435114504,-2.030534351145038,2.6717557251908395,-10.309432348632813,0.45010991210937495,-0.39264907226562495,-14.427480916030534,7.938931297709924,3.969465648854962,0
0.6200051307678223,-9.938331091308592,0.2657563842773437,-1.7932570434570312,-0.7480916030534351,6.290076335877862,-2.33587786259542,-10.627861169433594,-0.3184288208007812,0.0718260498046875,-5.221374045801527,-0.7022900763358778,-0.22900763358778625,-10.405200415039062,-0.16759411621093748,0.4955997436523437,-8.870229007633588,6.33587786259542,4.748091603053435,0
0.6300020217895508,-10.175357055664062,0.1005564697265625,-1.8507178833007811,0.7633587786259542,2.16793893129771,-1.6946564885496183,-9.634267480468749,-1.2378022583007813,-0.08379705810546874,-4.412213740458015,-2.4580152671755724,0.8702290076335878,-10.225635290527343,-1.6112977172851561,0.37828386230468747,6.290076335877862,-1.0076335877862594,2.1526717557251906,0
0.6400041580200195,-9.739612353515625,0.39743747558593745,-2.020706201171875,-0.183206106870229,-0.7786259541984732,-0.07633587786259542,-9.74200655517578,-0.928950244140625,-0.12689268798828124,-0.8549618320610687,-2.4580152671755724,-0.15267175572519084,-9.686939916992188,0.37828386230468747,-0.4477157104492187,9.297709923664122,-3.9083969465648853,-2.122137404580153,0
0.6500022411346436,-9.689334118652344,0.2825157958984375,-1.4006079711914061,-1.251908396946565,0.9770992366412213,0.366412213740458,-9.801861596679688,-0.45010991210937495,-0.0718260498046875,0.8091603053435115,-1.3129770992366412,-0.9618320610687023,-9.981426721191406,1.149216796875,0.105344873046875,-4.137404580152672,1.5419847328244274,-1.633587786259542,0
0.6600029468536377,-9.674968908691406,0.6703764648437499,-1.5346832641601562,-2.50381679389313,0.7480916030534351,-0.32061068702290074,-9.648632690429688,-0.5315127685546874,-0.09337386474609374,-0.4732824427480916,-0.9007633587786259,-0.6412213740458015,-9.603142858886718,1.01514150390625,-0.32561142578124996,-0.7938931297709924,-0.2748091603053435,-0.22900763358778625,0
0.6700022220611572,-9.816226806640625,0.3280056274414062,-1.5562310791015623,-1.816793893129771,1.3587786259541985,0.13740458015267176,-9.727641345214844,-0.25139117431640623,-0.29448680419921874,0.44274809160305345,-0.8549618320610687,-0.8702290076335878,-10.204087475585936,0.2154781494140625,0.03591302490234375,-2.0,-1.0229007633587786,0.732824427480916,0
0.6800045967102051,-9.689334118652344,0.12210428466796874,-1.7908628417968748,-1.7251908396946565,1.2061068702290076,0.0916030534351145,-9.794678991699218,-0.28969840087890625,-0.316034619140625,0.8854961832061069,-0.732824427480916,-0.3816793893129771,-9.911994873046874,0.2346317626953125,-0.5339069702148437,-0.5648854961832062,-2.213740458015267,-0.061068702290076333,0
0.6900019645690918,-9.639055883789062,0.02154781494140625,-1.7286135986328124,-1.099236641221374,1.099236641221374,-0.16793893129770993,-9.832986218261718,-0.26815058593749996,-0.40222587890625,0.9618320610687023,-0.9007633587786259,-0.549618320610687,-9.665392102050781,0.8499415893554687,-0.2609679809570312,2.885496183206107,-2.1374045801526718,-0.6870229007633588,0
0.7000017166137695,-9.651026892089844,-0.06703764648437499,-1.7286135986328124,-0.6717557251908397,1.7099236641221374,-0.3816793893129771,-9.813832604980469,-0.21308394775390624,-0.2561795776367187,0.8854961832061069,-1.0381679389312977,-0.4580152671755725,-9.648632690429688,0.6607996582031249,-0.49799394531249996,2.885496183206107,-0.9923664122137404,-0.3053435114503817,0
0.7100019454956055,-9.782707983398437,0.0383072265625,-1.7549498168945312,0.4732824427480916,1.4961832061068703,-0.3816793893129771,-9.86411083984375,-0.26815058593749996,-0.1867477294921875,0.15267175572519084,-1.7557251908396947,0.22900763358778625,-9.842563024902343,0.5913678100585937,-0.41419688720703124,4.687022900763359,-0.549618320610687,-0.3511450381679389,0
0.720003604888916,-9.821015209960937,0.10295067138671875,-1.7621324218749999,0.8396946564885496,1.2671755725190839,-0.015267175572519083,-9.773131176757811,-0.33518823242187495,-0.09816226806640624,0.04580152671755725,-1.7709923664122138,-0.5190839694656488,-9.689334118652344,0.5746083984375,-0.3280056274414062,3.816793893129771,-0.24427480916030533,-0.48854961832061067,0
0.7300019264221191,-9.840168823242188,0.26336218261718747,-1.6831237670898436,0.549618320610687,0.7633587786259542,-0.0916030534351145,-9.797073193359374,-0.5363011718749999,-0.15322890625,-0.6106870229007634,-1.7404580152671756,-0.42748091603053434,-9.775525378417969,0.7589619262695312,-0.411802685546875,4.183206106870229,0.13740458015267176,-0.7480916030534351,0
0.7400047779083252,-9.789890588378906,0.3806780639648437,-1.7525556152343749,0.6106870229007634,0.6564885496183206,-0.3053435114503817,-9.660603698730467,-0.5386953735351562,-0.0909796630859375,1.3893129770992367,-1.4198473282442747,-0.44274809160305345,-9.65342109375,0.7924807495117187,-0.411802685546875,2.8702290076335877,-0.10687022900763359,-0.5190839694656488,0
0.750002384185791,-9.890447058105469,0.3184288208007812,-1.7836802368164062,0.21374045801526717,-0.061068702290076333,0.12213740458015267,-9.7683427734375,-0.2561795776367187,-0.16759411621093748,0.7480916030534351,-1.1297709923664123,-0.5343511450381679,-9.931148486328125,0.316034619140625,-0.05746083984375,4.99236641221374,-0.4580152671755725,0.07633587786259542,0
0.7600035667419434,-9.87608184814453,0.4644751220703125,-1.9201497314453124,-0.22900763358778625,-1.9083969465648856,-0.1984732824427481,-9.787496386718749,-0.39983167724609375,-0.17956512451171874,0.5954198473282443,-0.8854961832061069,-0.24427480916030533,-10.175357055664062,0.5746083984375,-0.3112462158203125,12.381679389312977,-5.297709923664122,-0.8854961832061069,0
0.7700023651123047,-9.586383447265625,-0.23223756103515625,-3.3016040893554686,-0.9923664122137404,-4.2748091603053435,0.0916030534351145,-10.067617980957031,1.13006318359375,0.09576806640624999,-3.7251908396946565,-1.618320610687023,-0.9618320610687023,-9.267954626464844,1.3096283081054687,0.9121908325195311,23.770992366412212,-7.068702290076335,-3.6030534351145036,0
0.780003547668457,-10.855310327148437,0.16759411621093748,-1.3910311645507811,-0.32061068702290074,-7.679389312977099,0.42748091603053434,-8.990227233886719,-0.41898529052734373,-0.5195417602539062,-12.091603053435115,-6.5038167938931295,1.1603053435114503,-10.273519323730468,1.20667763671875,2.090138049316406,35.6793893129771,-8.442748091603054,-3.2519083969465647,0
0.790001630783081,-10.347739575195313,0.30406361083984373,-1.2641384765625,-1.9083969465648856,-11.740458015267176,1.099236641221374,-9.260772021484375,-0.45489831542968745,-0.055066638183593745,-10.061068702290076,-4.0,0.7175572519083969,-10.809820495605468,0.4740519287109375,-0.6823474731445313,18.12213740458015,-11.038167938931299,-5.099236641221374,0
0.8000054359436035,-10.189722265624999,0.5003881469726562,-0.9600748657226562,-1.8473282442748091,-12.488549618320612,0.9312977099236641,-10.251971508789062,-0.02154781494140625,0.3280056274414062,-11.374045801526718,-3.1603053435114505,0.10687022900763359,-10.39322940673828,1.3383587280273437,-0.5578489868164063,14.961832061068701,-8.900763358778626,-5.236641221374046,0
0.810002326965332,-9.612719665527344,0.08140285644531249,-1.2737152832031249,-1.7557251908396947,-11.725190839694656,1.2671755725190839,-9.0021982421875,-0.6871358764648438,-0.6679822631835937,-13.435114503816793,-8.13740458015267,1.3893129770992367,-10.213664282226562,1.5227122558593749,-0.22026655273437498,-0.7175572519083969,-5.755725190839694,-2.351145038167939,0
0.8200058937072754,-8.978256225585938,0.19393033447265623,-1.2306196533203124,-1.6641221374045803,-7.114503816793893,-0.12213740458015267,-9.026140258789061,-1.3335703247070312,0.09337386474609374,-8.15267175572519,-3.7557251908396947,0.8396946564885496,-8.930372192382812,1.9488801513671874,-1.2665326782226562,-15.48091603053435,-3.0381679389312977,-0.24427480916030533,0
0.8300025463104248,-8.889670764160156,0.09337386474609374,-1.1611878051757811,-0.7175572519083969,-1.6793893129770991,-1.3282442748091603,-8.80347950439453,-2.6240450195312497,-0.229843359375,5.465648854961832,0.183206106870229,0.9007633587786259,-9.655815295410155,0.08140285644531249,-0.8762778076171874,-7.648854961832061,-1.9389312977099236,2.4732824427480917,0
0.8400042057037354,-9.543287817382812,0.22744915771484372,-1.3311761230468748,0.4580152671755725,2.122137404580153,-0.16793893129770993,-10.345345373535155,0.8355763793945312,0.05027823486328125,4.320610687022901,0.6259541984732825,-2.1526717557251906,-10.180145458984374,-0.8355763793945312,-0.5817910034179687,-0.4122137404580153,-1.3282442748091603,2.33587786259542,0
0.8500022888183594,-9.514557397460937,0.023942016601562498,-2.0733786376953125,0.366412213740458,1.7404580152671756,-0.4580152671755725,-10.01015714111328,0.18435352783203124,0.2537853759765625,-1.9083969465648856,-0.32061068702290074,-1.4351145038167938,-9.6151138671875,0.74699091796875,-0.5698199951171875,5.679389312977099,-0.5038167938931297,-0.7022900763358778,0
0.8600037097930908,-9.85692823486328,0.2609679809570312,-1.6711527587890624,0.3511450381679389,1.1908396946564885,-0.5343511450381679,-9.65342109375,-0.7302315063476562,0.0143652099609375,-0.8702290076335878,-1.2213740458015268,-0.24427480916030533,-9.751583361816406,0.9313444458007812,-0.3806780639648437,5.969465648854962,0.5648854961832062,-0.1984732824427481,0
0.8700025081634521,-9.849745629882811,0.29927520751953124,-1.6831237670898436,0.5648854961832062,0.030534351145038167,-0.04580152671755725,-9.674968908691406,-0.4955997436523437,-0.15562310791015624,3.0229007633587788,-0.7633587786259542,-0.16793893129770993,-9.536105212402344,0.9121908325195311,-0.4070142822265625,1.9694656488549618,-0.030534351145038167,0.5190839694656488,0
0.8800020217895508,-9.842563024902343,0.316034619140625,-1.5849614990234373,-0.0916030534351145,-0.4580152671755725,-0.2900763358778626,-9.665392102050781,-0.239420166015625,-0.12210428466796874,2.7786259541984735,-0.44274809160305345,-0.5038167938931297,-9.794678991699218,0.5793968017578125,-0.24181436767578124,0.366412213740458,0.16793893129770993,0.8091603053435115,0
0.8900022506713867,-9.794678991699218,0.34715924072265625,-1.5873557006835937,-0.6106870229007634,-0.732824427480916,-0.3969465648854962,-9.883264453125,-0.22026655273437498,-0.06464344482421874,2.885496183206107,-0.6564885496183206,-0.6870229007633588,-9.849745629882811,0.737414111328125,-0.04548983154296875,-1.0381679389312977,-0.5343511450381679,0.8549618320610687,0
0.9000020027160645,-9.667786303710937,0.29927520751953124,-1.6472107421875,-0.9007633587786259,-0.4122137404580153,-0.1984732824427481,-9.655815295410155,-0.13646949462890623,-0.03591302490234375,2.4885496183206106,-0.5801526717557252,-0.6412213740458015,-10.022128149414062,0.2609679809570312,-0.201112939453125,-1.1450381679389312,-0.7175572519083969,0.732824427480916,0
0.910001277923584,-9.6151138671875,0.2442085693359375,-1.5298948608398437,-0.916030534351145,-0.13740458015267176,-0.07633587786259542,-9.813832604980469,-0.11731588134765625,-0.03591302490234375,1.0076335877862594,-0.5954198473282443,-0.5343511450381679,-9.909600671386718,0.48123453369140623,0.13407529296874998,0.2595419847328244,-0.6564885496183206,0.2748091603053435,0
0.9200015068054199,-9.610325463867188,0.26336218261718747,-1.6903063720703124,-1.083969465648855,0.22900763358778625,-0.5190839694656488,-9.785102185058593,-0.2442085693359375,-0.016759411621093748,-0.07633587786259542,-0.7938931297709924,-0.21374045801526717,-9.904812268066406,0.6584054565429687,-0.3136404174804687,1.1145038167938932,-1.5267175572519085,0.183206106870229,0
0.9300017356872559,-9.658209497070311,0.17956512451171874,-1.7860744384765623,-1.297709923664122,0.5038167938931297,-0.4580152671755725,-9.823409411621093,-0.22505495605468748,-0.0909796630859375,-0.07633587786259542,-0.44274809160305345,-0.1984732824427481,-9.785102185058593,0.7565677246093749,-0.21068974609375,0.5954198473282443,-1.2366412213740459,-0.3816793893129771,0
0.9400019645690918,-9.730035546875,0.21068974609375,-1.5729904907226562,-0.9312977099236641,0.7480916030534351,-0.5954198473282443,-9.823409411621093,-0.29927520751953124,-0.08379705810546874,0.07633587786259542,-0.4122137404580153,-0.3053435114503817,-9.70369932861328,0.7517793212890624,-0.2657563842773437,0.7175572519083969,-0.9923664122137404,-0.32061068702290074,0
0.9500019550323486,-9.835380419921874,0.15322890625,-1.5610194824218748,-0.7633587786259542,0.3816793893129771,-0.5801526717557252,-9.854534033203125,-0.28012159423828126,0.0383072265625,-0.2748091603053435,-0.6717557251908397,-0.5190839694656488,-9.797073193359374,0.7422025146484375,-0.17238251953125,0.7022900763358778,-0.7633587786259542,0.0916030534351145,0
0.9600014686584473,-9.662997900390625,0.24660277099609373,-1.8028338500976562,-0.8091603053435115,0.5801526717557252,-0.7938931297709924,-9.794678991699218,-0.41898529052734373,-0.023942016601562498,-0.04580152671755725,-0.8549618320610687,-0.21374045801526717,-9.816226806640625,0.6344634399414062,-0.20829554443359374,0.030534351145038167,-0.549618320610687,0.5038167938931297,0
0.970001220703125,-9.765948571777344,0.2154781494140625,-1.5562310791015623,-0.5038167938931297,0.3969465648854962,-0.8244274809160306,-9.80665,-0.47165772705078124,0.01915361328125,-0.2900763358778626,-0.6564885496183206,-0.5343511450381679,-9.60793126220703,0.5291185668945312,-0.38786066894531246,-0.015267175572519083,-0.732824427480916,0.4122137404580153,0
0.98000168800354,-9.739612353515625,0.277727392578125,-1.4413093994140624,-0.7022900763358778,0.6106870229007634,-0.5190839694656488,-9.868899243164062,-0.33518823242187495,-0.10773907470703124,-0.1984732824427481,-0.9312977099236641,-0.42748091603053434,-9.74200655517578,0.5961562133789062,-0.2609679809570312,0.4580152671755725,-0.5343511450381679,0.3816793893129771,0
0.9900016784667969,-9.732429748535155,0.3950432739257812,-1.5227122558593749,-0.9312977099236641,0.6106870229007634,-0.5801526717557252,-9.756371765136718,-0.316034619140625,0.01915361328125,0.5648854961832062,-0.6106870229007634,-0.3816793893129771,-9.969455712890625,0.28490999755859375,-0.3184288208007812,0.6564885496183206,0.24427480916030533,0.5801526717557252,0
1.0000040531158447,-9.672574707031249,0.3232172241210937,-1.5801730957031248,-0.6412213740458015,0.5038167938931297,-0.1984732824427481,-9.78031378173828,-0.33518823242187495,0.01915361328125,0.42748091603053434,-0.7022900763358778,-0.2595419847328244,-9.828197814941406,0.3950432739257812,-0.20350714111328125,0.32061068702290074,-0.1984732824427481,-0.0,0
1.0100014209747314,-9.679757312011718,0.229843359375,-1.7429788085937499,-0.7633587786259542,0.1984732824427481,-0.5801526717557252,-9.686939916992188,-0.26815058593749996,0.06703764648437499,0.13740458015267176,-0.732824427480916,-0.3816793893129771,-10.1131078125,0.3184288208007812,-0.4955997436523437,0.7480916030534351,-0.44274809160305345,-0.0,0
1.0200023651123047,-9.612719665527344,0.2609679809570312,-1.687912170410156,-0.9465648854961832,0.4580152671755725,-0.2900763358778626,-9.612719665527344,-0.469263525390625,-0.08379705810546874,0.5190839694656488,-0.6717557251908397,-0.2900763358778626,-9.907206469726562,0.39743747558593745,-0.2920926025390625,0.6412213740458015,-0.3053435114503817,0.13740458015267176,0
1.0300018787384033,-9.804255798339844,0.30885201416015623,-1.5179238525390624,-0.9770992366412213,0.549618320610687,-0.16793893129770993,-9.785102185058593,-0.36631285400390623,0.105344873046875,0.3969465648854962,-0.732824427480916,-0.33587786259541985,-9.81862100830078,0.6823474731445313,-0.10773907470703124,0.1984732824427481,-0.9007633587786259,-0.061068702290076333,0
1.0400025844573975,-9.756371765136718,0.24660277099609373,-1.484405029296875,-0.9770992366412213,1.0381679389312977,-0.2900763358778626,-9.787496386718749,-0.316034619140625,0.0143652099609375,0.183206106870229,-0.6412213740458015,-0.366412213740458,-9.794678991699218,0.45968671875,-0.5099649536132812,0.3053435114503817,-1.099236641221374,0.24427480916030533,0
1.050001859664917,-9.68454571533203,0.26815058593749996,-1.68551796875,-1.0534351145038168,0.916030534351145,-0.44274809160305345,-9.828197814941406,-0.41898529052734373,-0.055066638183593745,-0.0916030534351145,-1.0534351145038168,-0.21374045801526717,-9.861716638183593,0.7398083129882812,-0.3064578125,0.5954198473282443,-1.1297709923664123,0.183206106870229,0
1.060002088546753,-9.648632690429688,0.24660277099609373,-1.8148048583984373,-0.9618320610687023,0.8549618320610687,-0.42748091603053434,-9.765948571777344,-0.4572925170898437,-0.00239420166015625,0.3969465648854962,-1.0076335877862594,-0.13740458015267176,-9.634267480468749,0.5434837768554687,-0.6560112548828124,-0.5954198473282443,-1.5725190839694656,0.5343511450381679,0
1.0700018405914307,-9.83777462158203,0.2825157958984375,-1.43652099609375,-0.732824427480916,1.1603053435114503,-0.42748091603053434,-9.823409411621093,-0.4477157104492187,-0.05746083984375,0.24427480916030533,-0.8549618320610687,-0.015267175572519083,-9.677363110351562,0.8379705810546875,-0.17477672119140625,-0.42748091603053434,-0.9465648854961832,0.42748091603053434,0
1.0800020694732666,-9.603142858886718,0.28969840087890625,-1.707065783691406,-0.7786259541984732,0.7786259541984732,-0.061068702290076333,-9.591171850585937,-0.2561795776367187,-0.1005564697265625,0.4732824427480916,-0.8549618320610687,-0.3053435114503817,-9.6151138671875,0.5626373901367188,-0.41419688720703124,0.0,-0.916030534351145,0.44274809160305345,0
1.0900018215179443,-9.765948571777344,0.24660277099609373,-1.5945383056640625,-0.5343511450381679,0.5190839694656488,-0.015267175572519083,-9.727641345214844,-0.2753331909179687,-0.009576806640625,0.10687022900763359,-0.48854961832061067,-0.183206106870229,-9.658209497070311,0.6631938598632812,-0.22744915771484372,-0.2595419847328244,-1.1450381679389312,0.21374045801526717,0
1.1000025272369385,-9.737218151855469,0.23223756103515625,-1.6136919189453125,-0.4580152671755725,0.5343511450381679,-0.12213740458015267,-9.751583361816406,-0.19153613281249998,0.04548983154296875,-0.549618320610687,-0.5801526717557252,-0.4580152671755725,-9.775525378417969,0.6416460449218749,-0.17956512451171874,0.6106870229007634,-1.0534351145038168,0.0916030534351145,0
1.110001564025879,-9.636661682128906,0.2657563842773437,-1.7788918334960937,-0.6412213740458015,0.48854961832061067,-0.21374045801526717,-9.674968908691406,-0.3687070556640625,-0.11013327636718749,-0.3969465648854962,-0.7175572519083969,-0.07633587786259542,-9.832986218261718,0.5530605834960938,-0.373495458984375,0.6412213740458015,-0.6564885496183206,0.061068702290076333,0
1.1200025081634521,-9.753977563476562,0.2825157958984375,-1.5729904907226562,-0.44274809160305345,0.8244274809160306,-0.10687022900763359,-9.804255798339844,-0.3758896606445312,-0.055066638183593745,-0.5648854961832062,-0.5343511450381679,-0.1984732824427481,-9.545682019042967,0.5482721801757812,-0.4261678955078125,0.15267175572519084,-1.4045801526717556,-0.16793893129770993,0
1.1300041675567627,-9.758765966796874,0.32561142578124996,-1.5131354492187499,-0.5648854961832062,0.4122137404580153,-0.44274809160305345,-9.797073193359374,-0.3327940307617187,-0.00718260498046875,-0.32061068702290074,-0.7175572519083969,-0.10687022900763359,-9.715670336914062,0.6679822631835937,-0.36631285400390623,0.3053435114503817,-1.3282442748091603,0.015267175572519083,0
1.1400020122528076,-9.70369932861328,0.2609679809570312,-1.62805712890625,-0.7633587786259542,0.8396946564885496,-0.2595419847328244,-9.696516723632811,-0.40462008056640625,-0.0383072265625,-0.21374045801526717,-0.732824427480916,-0.21374045801526717,-9.718064538574218,0.7924807495117187,-0.46208092041015625,0.21374045801526717,-1.3435114503816794,0.10687022900763359,0
1.1500015258789062,-9.686939916992188,0.2537853759765625,-1.675941162109375,-0.7175572519083969,0.7480916030534351,-0.2748091603053435,-9.816226806640625,-0.3758896606445312,-0.08379705810546874,-0.32061068702290074,-0.7480916030534351,-0.16793893129770993,-9.79946739501953,0.5434837768554687,-0.5410895751953124,-0.183206106870229,-1.3587786259541985,0.21374045801526717,0
1.1600017547607422,-9.730035546875,0.105344873046875,-1.6232687255859375,-0.6106870229007634,0.7633587786259542,-0.21374045801526717,-9.82580361328125,-0.3232172241210937,-0.047884033203124995,0.16793893129770993,-0.9465648854961832,-0.2900763358778626,-9.679757312011718,0.6751648681640625,-0.411802685546875,-0.6870229007633588,-1.4198473282442747,0.5343511450381679,0
1.17000150680542,-9.713276135253906,0.18914193115234373,-1.6735469604492186,-0.33587786259541985,0.6564885496183206,-0.6106870229007634,-9.789890588378906,-0.4908113403320312,-0.0383072265625,0.3053435114503817,-0.5801526717557252,-0.3969465648854962,-9.660603698730467,0.6272808349609375,-0.4285620971679687,0.061068702290076333,-0.9007633587786259,0.2595419847328244,0
1.1800012588500977,-9.713276135253906,0.19871873779296872,-1.659181750488281,-0.33587786259541985,0.6717557251908397,-0.3053435114503817,-9.753977563476562,-0.35194764404296874,-0.09816226806640624,0.916030534351145,-0.7022900763358778,-0.366412213740458,-9.758765966796874,0.9002198242187499,-0.12689268798828124,0.3053435114503817,-1.099236641221374,0.2748091603053435,0
1.1900012493133545,-9.758765966796874,0.26815058593749996,-1.5179238525390624,-0.6106870229007634,0.5190839694656488,-0.32061068702290074,-9.718064538574218,-0.34237083740234375,0.047884033203124995,0.6412213740458015,-0.7022900763358778,-0.15267175572519084,-9.82580361328125,0.6200982299804687,-0.5985504150390625,0.6717557251908397,-0.732824427480916,0.16793893129770993,0
1.2000019550323486,-9.600748657226562,0.2537853759765625,-1.848323681640625,-0.5343511450381679,0.5954198473282443,-0.4122137404580153,-9.801861596679688,-0.35673604736328124,-0.09576806640624999,0.916030534351145,-0.6259541984732825,-0.183206106870229,-9.696516723632811,0.7326257080078125,-0.35194764404296874,0.2900763358778626,-1.2213740458015268,0.12213740458015267,0
1.2100017070770264,-9.746794958496093,0.2346317626953125,-1.6903063720703124,-0.44274809160305345,0.6106870229007634,-0.22900763358778625,-9.720458740234374,-0.4213794921875,-0.15322890625,0.9465648854961832,-0.7480916030534351,-0.07633587786259542,-9.739612353515625,0.47644613037109373,-0.6919242797851562,0.07633587786259542,-0.8244274809160306,0.04580152671755725,0
1.220001220703125,-9.708487731933593,0.27293898925781246,-1.5945383056640625,-0.8091603053435115,0.32061068702290074,-0.366412213740458,-9.713276135253906,-0.4213794921875,-0.06943184814453125,0.5954198473282443,-0.6412213740458015,-0.4732824427480916,-9.782707983398437,0.833182177734375,-0.1388636962890625,0.8702290076335878,-0.7022900763358778,0.183206106870229,0
1.2300019264221191,-9.70369932861328,0.3184288208007812,-1.5897499023437498,-1.0229007633587786,0.48854961832061067,-0.42748091603053434,-9.619902270507811,-0.1771709228515625,-0.0430956298828125,0.2748091603053435,-0.5190839694656488,-0.32061068702290074,-9.751583361816406,0.7326257080078125,-0.0909796630859375,0.13740458015267176,-0.8244274809160306,0.44274809160305345,0
1.240001916885376,-9.74200655517578,0.29927520751953124,-1.5729904907226562,-1.2213740458015268,0.5343511450381679,-0.2900763358778626,-9.770736975097655,-0.24181436767578124,-0.03591302490234375,-0.16793893129770993,-0.15267175572519084,-0.24427480916030533,-9.677363110351562,0.7613561279296874,-0.047884033203124995,-0.15267175572519084,-1.0076335877862594,0.12213740458015267,0
1.250002145767212,-9.725247143554688,0.3184288208007812,-1.4125789794921875,-1.3740458015267176,0.42748091603053434,-0.10687022900763359,-9.619902270507811,-0.19393033447265623,0.009576806640625,-0.549618320610687,-0.21374045801526717,-0.04580152671755725,-9.847351428222655,0.6200982299804687,-0.4572925170898437,-0.21374045801526717,-0.8549618320610687,0.42748091603053434,0
1.2600018978118896,-9.674968908691406,0.25139117431640623,-1.6807295654296874,-1.6641221374045803,0.4122137404580153,0.030534351145038167,-9.72285294189453,-0.22505495605468748,-0.06943184814453125,-0.9770992366412213,-0.15267175572519084,-0.183206106870229,-9.928754284667969,0.6440402465820312,-0.28730419921875,-0.32061068702290074,-0.6412213740458015,0.16793893129770993,0
1.2700023651123047,-9.610325463867188,0.30885201416015623,-1.7190367919921874,-1.5267175572519085,0.366412213740458,-0.5038167938931297,-9.753977563476562,-0.25139117431640623,0.00718260498046875,-1.7404580152671756,-0.5801526717557252,-0.3053435114503817,-10.01015714111328,0.833182177734375,-0.40462008056640625,-0.2595419847328244,-0.5343511450381679,-0.13740458015267176,0
1.2800021171569824,-9.81862100830078,0.296881005859375,-1.5370774658203123,-1.8931297709923665,0.6717557251908397,-0.42748091603053434,-9.847351428222655,-0.2753331909179687,0.0047884033203125,-1.9541984732824427,-0.5343511450381679,-0.13740458015267176,-9.95987890625,0.4908113403320312,-0.36152445068359373,-0.061068702290076333,-0.015267175572519083,-0.0,0
1.2900018692016602,-9.782707983398437,0.2346317626953125,-1.5562310791015623,-1.4198473282442747,0.42748091603053434,-0.6259541984732825,-9.706093530273437,-0.3184288208007812,0.03591302490234375,-1.3893129770992367,-0.4122137404580153,-0.2595419847328244,-9.835380419921874,0.6703764648437499,-0.1771709228515625,0.2748091603053435,-0.42748091603053434,0.12213740458015267,0
1.3000023365020752,-9.792284790039062,0.16759411621093748,-1.599326708984375,-1.8473282442748091,0.5648854961832062,-0.549618320610687,-9.82580361328125,-0.43574470214843747,-0.05027823486328125,-1.1297709923664123,-0.6106870229007634,-0.3969465648854962,-9.835380419921874,0.7326257080078125,-0.2561795776367187,-0.2595419847328244,-0.8091603053435115,0.183206106870229,0
1.310002326965332,-9.672574707031249,0.201112939453125,-1.6903063720703124,-1.4045801526717556,0.6412213740458015,-0.061068702290076333,-9.811438403320311,-0.46686932373046874,-0.13168109130859373,-0.7633587786259542,-0.7175572519083969,-0.4732824427480916,-9.811438403320311,0.6560112548828124,-0.18435352783203124,-0.48854961832061067,-0.4580152671755725,0.5801526717557252,0
1.3200020790100098,-9.655815295410155,0.2561795776367187,-1.6639701538085936,-1.5114503816793894,0.5648854961832062,-0.366412213740458,-9.852139831542969,-0.30885201416015623,-0.011971008300781249,-1.0076335877862594,-0.6412213740458015,-0.44274809160305345,-9.586383447265625,0.47884033203125,-0.4525041137695312,-0.22900763358778625,-0.732824427480916,0.015267175572519083,0
1.330003023147583,-9.751583361816406,0.21787235107421873,-1.5107412475585937,-1.297709923664122,0.6106870229007634,-0.6106870229007634,-9.670180505371093,-0.45968671875,0.0,-0.8854961832061069,-0.8702290076335878,-0.16793893129770993,-9.911994873046874,0.8355763793945312,-0.105344873046875,0.10687022900763359,-0.15267175572519084,0.32061068702290074,0
1.3400018215179443,-9.670180505371093,0.239420166015625,-1.5682020874023437,-1.5267175572519085,0.732824427480916,-0.3511450381679389,-9.81862100830078,-0.5219359619140624,-0.20829554443359374,-0.4732824427480916,-0.7938931297709924,-0.16793893129770993,-9.93354268798828,0.46686932373046874,-0.4429273071289062,0.13740458015267176,-0.3969465648854962,0.015267175572519083,0
1.350003957748413,-9.78031378173828,0.2920926025390625,-1.5538368774414062,-1.4198473282442747,0.8091603053435115,-0.5343511450381679,-9.715670336914062,-0.3232172241210937,-0.040701428222656245,-0.32061068702290074,-0.8091603053435115,-0.5343511450381679,-9.981426721191406,0.7230489013671875,-0.086191259765625,-0.24427480916030533,-0.6717557251908397,0.13740458015267176,0
1.3600022792816162,-9.701305126953125,0.3136404174804687,-1.7286135986328124,-1.6641221374045803,0.5343511450381679,-0.0916030534351145,-9.6917283203125,-0.22505495605468748,-0.08379705810546874,-0.7938931297709924,-0.8244274809160306,-0.3511450381679389,-9.804255798339844,0.8307879760742187,0.1149216796875,-0.6259541984732825,-0.5648854961832062,0.5190839694656488,0
1.3700015544891357,-9.746794958496093,0.28012159423828126,-1.4963760375976562,-1.8931297709923665,0.4580152671755725,-0.061068702290076333,-9.797073193359374,-0.09576806640624999,-0.0718260498046875,-1.8473282442748091,-0.9312977099236641,-0.3053435114503817,-9.773131176757811,0.9313444458007812,0.28969840087890625,-0.3969465648854962,-0.7633587786259542,0.15267175572519084,0
1.3800022602081299,-9.97184991455078,0.25139117431640623,-1.599326708984375,-1.7557251908396947,-0.183206106870229,-0.1984732824427481,-10.342951171874999,1.3407529296874998,0.3854664672851562,-9.007633587786259,-2.045801526717557,-0.9923664122137404,-9.885658654785155,0.5363011718749999,-0.5027823486328125,-1.2366412213740459,-0.8854961832061069,0.10687022900763359,0
1.3900022506713867,-9.631873278808593,0.009576806640625,-1.7381904052734374,-1.7251908396946565,-1.5877862595419847,-0.6106870229007634,-8.990227233886719,-1.6615759521484375,-0.22744915771484372,-8.274809160305344,-3.404580152671756,1.3893129770992367,-9.689334118652344,0.8978256225585937,-0.10773907470703124,-2.519083969465649,-0.6412213740458015,0.13740458015267176,0
1.4000022411346436,-9.797073193359374,0.30885201416015623,-1.4508862060546874,-1.2061068702290076,-0.4580152671755725,-0.3969465648854962,-9.832986218261718,-0.28490999755859375,-0.05746083984375,-3.801526717557252,-2.198473282442748,0.4580152671755725,-10.019733947753906,0.3854664672851562,-0.45489831542968745,-1.786259541984733,-0.3816793893129771,1.1603053435114503,0
1.4100019931793213,-9.425971936035156,0.11013327636718749,-1.5562310791015623,-1.1755725190839694,-0.732824427480916,-0.4580152671755725,-9.255983618164063,-1.5059528442382812,-0.5961562133789062,-3.2977099236641223,-2.6564885496183206,1.099236641221374,-9.7683427734375,0.7134720947265625,-0.689530078125,-1.4961832061068703,-0.33587786259541985,-0.12213740458015267,0
1.4200022220611572,-9.624690673828125,0.3950432739257812,-1.6711527587890624,-1.5419847328244274,1.1755725190839694,-0.6412213740458015,-10.053252770996092,-0.19393033447265623,-0.1867477294921875,-0.5343511450381679,-1.633587786259542,-0.1984732824427481,-9.89523546142578,0.7445967163085937,-0.086191259765625,-1.0534351145038168,-0.8396946564885496,0.33587786259541985,0
1.4300024509429932,-9.773131176757811,0.13407529296874998,-1.637633935546875,-1.3893129770992367,1.297709923664122,-0.366412213740458,-9.950302099609374,-0.1771709228515625,0.062249243164062495,-1.251908396946565,-0.5648854961832062,-1.297709923664122,-9.852139831542969,0.4740519287109375,-0.833182177734375,0.5801526717557252,-0.9312977099236641,-0.44274809160305345,0
1.4400019645690918,-9.792284790039062,0.2705447875976562,-1.5873557006835937,-1.4961832061068703,1.0076335877862594,-0.48854961832061067,-9.804255798339844,-0.39983167724609375,-0.05027823486328125,-1.3587786259541985,-1.4045801526717556,-0.1984732824427481,-9.765948571777344,0.699106884765625,-0.26336218261718747,-0.4732824427480916,-1.3740458015267176,-0.0916030534351145,0
1.4500019550323486,-9.670180505371093,0.20829554443359374,-1.7621324218749999,-1.6641221374045803,1.1450381679389312,-0.24427480916030533,-9.8449572265625,-0.45010991210937495,-0.277727392578125,0.015267175572519083,-0.9923664122137404,0.10687022900763359,-9.878476049804688,0.6727706665039062,-0.41898529052734373,0.7633587786259542,-0.8396946564885496,0.2900763358778626,0
1.4600017070770264,-9.74200655517578,0.22026655273437498,-1.4604630126953124,-1.7099236641221374,0.48854961832061067,-0.44274809160305345,-9.710881933593749,-0.4381389038085937,-0.28490999755859375,0.7175572519083969,-1.1755725190839694,-0.04580152671755725,-9.744400756835937,0.7326257080078125,-0.28969840087890625,-1.0229007633587786,-1.2671755725190839,0.061068702290076333,0
1.4700016975402832,-9.619902270507811,0.20829554443359374,-1.6448165405273436,-1.7709923664122138,0.6412213740458015,-0.183206106870229,-9.701305126953125,-0.296881005859375,-0.354341845703125,0.0,-1.4351145038167938,-0.366412213740458,-9.744400756835937,0.5410895751953124,-0.28969840087890625,-1.1297709923664123,-1.5725190839694656,-0.015267175572519083,0
1.4800019264221191,-9.56962403564453,0.23223756103515625,-1.915361328125,-1.4961832061068703,0.6870229007633588,-0.2900763358778626,-9.612719665527344,-0.3591302490234375,-0.08140285644531249,-0.3511450381679389,-0.916030534351145,-0.3511450381679389,-9.871293444824218,0.5985504150390625,-0.7278373046875,-1.0381679389312977,-1.251908396946565,-0.22900763358778625,0
1.490002155303955,-9.686939916992188,0.15083470458984374,-1.6400281372070311,-1.6793893129770991,0.9618320610687023,-0.42748091603053434,-9.809044201660155,-0.40940848388671874,-0.21068974609375,-0.8091603053435115,-1.297709923664122,-0.183206106870229,-9.938331091308592,0.7829039428710937,-0.35194764404296874,-1.0229007633587786,-1.1297709923664123,0.07633587786259542,0
1.5000016689300537,-9.78031378173828,0.22744915771484372,-1.4628572143554686,-1.5725190839694656,0.3816793893129771,-0.24427480916030533,-9.677363110351562,-0.5267243652343749,-0.1197100830078125,-0.6717557251908397,-1.3129770992366412,-0.2595419847328244,-9.76116016845703,0.8954314208984374,-0.19871873779296872,-0.42748091603053434,-1.3587786259541985,-0.1984732824427481,0
1.5100018978118896,-9.64623848876953,0.2705447875976562,-1.656787548828125,-1.3129770992366412,0.9618320610687023,-0.183206106870229,-9.567229833984374,-0.46686932373046874,-0.031124621582031248,-0.366412213740458,-1.2213740458015268,-0.3053435114503817,-9.706093530273437,0.612915625,-0.6679822631835937,-0.1984732824427481,-1.099236641221374,-0.2748091603053435,0
1.5200016498565674,-9.854534033203125,0.19632453613281248,-1.2665326782226562,-1.5419847328244274,1.0534351145038168,-0.4580152671755725,-9.555258825683593,-0.32561142578124996,-0.1388636962890625,-0.2595419847328244,-0.8244274809160306,-0.16793893129770993,-9.718064538574218,1.0941501586914062,0.00239420166015625,-0.549618320610687,-1.297709923664122,-0.183206106870229,0
1.5300023555755615,-9.658209497070311,0.3112462158203125,-1.5418658691406248,-1.5725190839694656,0.9312977099236641,-0.1984732824427481,-9.588777648925781,-0.28490999755859375,-0.076614453125,-0.4580152671755725,-0.9923664122137404,-0.22900763358778625,-9.758765966796874,0.488417138671875,-0.8116343627929687,-1.5267175572519085,-1.2671755725190839,-0.2595419847328244,0
1.5400018692016602,-9.639055883789062,0.1867477294921875,-1.714248388671875,-1.0534351145038168,0.9770992366412213,-0.44274809160305345,-9.76116016845703,-0.316034619140625,-0.016759411621093748,-0.32061068702290074,-0.9465648854961832,-0.42748091603053434,-9.732429748535155,0.6105214233398437,-0.3399766357421875,-0.22900763358778625,-0.9465648854961832,-0.061068702290076333,0
1.550002098083496,-9.629479077148437,0.18435352783203124,-1.6017209106445311,-1.297709923664122,0.8702290076335878,-0.4580152671755725,-9.7683427734375,-0.3687070556640625,-0.09576806640624999,-0.7175572519083969,-1.1145038167938932,-0.3053435114503817,-9.789890588378906,0.565031591796875,-0.3854664672851562,-0.5343511450381679,-1.0381679389312977,-0.21374045801526717,0
1.560002088546753,-9.639055883789062,0.2346317626953125,-1.5442600708007812,-1.099236641221374,1.099236641221374,-0.16793893129770993,-9.744400756835937,-0.4333505004882812,-0.009576806640625,-0.6412213740458015,-0.8396946564885496,-0.4580152671755725,-9.610325463867188,0.3687070556640625,-0.8595183959960937,-0.9770992366412213,-1.297709923664122,0.183206106870229,0
1.5700016021728516,-9.792284790039062,0.09337386474609374,-1.5658078857421873,-1.099236641221374,0.8244274809160306,-0.10687022900763359,-9.86411083984375,-0.49320554199218747,-0.10773907470703124,-0.4580152671755725,-1.0381679389312977,-0.366412213740458,-9.730035546875,1.0079588989257813,0.0430956298828125,-0.48854961832061067,-1.7099236641221374,0.030534351145038167,0
1.5800025463104248,-9.710881933593749,0.17238251953125,-1.6615759521484375,-1.0534351145038168,0.549618320610687,-0.2748091603053435,-9.765948571777344,-0.4740519287109375,-0.07900865478515624,0.22900763358778625,-1.3282442748091603,-0.4732824427480916,-9.787496386718749,0.7948749511718749,-0.4477157104492187,-1.251908396946565,-1.2213740458015268,-0.10687022900763359,0
1.5900018215179443,-9.782707983398437,0.21787235107421873,-1.5514426757812498,-0.5648854961832062,1.0534351145038168,0.07633587786259542,-9.756371765136718,-0.4908113403320312,-0.16998831787109375,0.030534351145038167,-1.3129770992366412,-0.6106870229007634,-10.007762939453125,0.6823474731445313,-0.3758896606445312,0.24427480916030533,-0.916030534351145,-0.0,0
1.6000020503997803,-9.701305126953125,0.181959326171875,-1.5705962890624998,-0.4580152671755725,0.549618320610687,0.04580152671755725,-9.624690673828125,-0.584185205078125,-0.12210428466796874,0.6870229007633588,-1.1145038167938932,-0.732824427480916,-9.847351428222655,0.7062894897460937,-0.16759411621093748,0.2595419847328244,-1.3435114503816794,0.030534351145038167,0
1.61000394821167,-9.775525378417969,0.15562310791015624,-1.6711527587890624,-0.44274809160305345,0.6870229007633588,-0.10687022900763359,-9.64623848876953,-0.5315127685546874,-0.19153613281249998,1.2061068702290076,-1.1297709923664123,-0.6564885496183206,-9.794678991699218,0.4261678955078125,-0.6560112548828124,0.366412213740458,-1.3129770992366412,-0.24427480916030533,0
1.620002031326294,-9.641450085449218,0.239420166015625,-1.7357962036132812,-0.42748091603053434,0.42748091603053434,-0.07633587786259542,-9.689334118652344,-0.3950432739257812,-0.105344873046875,1.3282442748091603,-1.1908396946564885,-0.3511450381679389,-9.696516723632811,1.0510545288085937,0.023942016601562498,0.366412213740458,-1.3129770992366412,0.07633587786259542,0
1.6300020217895508,-9.682151513671874,0.21787235107421873,-1.6400281372070311,-0.2748091603053435,0.5343511450381679,-0.13740458015267176,-9.686939916992188,-0.277727392578125,-0.055066638183593745,1.251908396946565,-1.099236641221374,-0.44274809160305345,-9.720458740234374,0.7852981445312499,-0.1197100830078125,0.2595419847328244,-1.1450381679389312,-0.061068702290076333,0
1.6400022506713867,-9.713276135253906,0.2825157958984375,-1.5921441040039062,-0.16793893129770993,0.4732824427480916,-0.5648854961832062,-9.720458740234374,-0.36152445068359373,-0.14604630126953125,1.4198473282442747,-1.1603053435114503,-0.2900763358778626,-9.655815295410155,0.6967126831054687,-0.28012159423828126,0.3511450381679389,-1.282442748091603,0.3511450381679389,0
1.6500017642974854,-9.6151138671875,0.239420166015625,-1.7501614135742187,-0.0916030534351145,0.7633587786259542,0.04580152671755725,-9.686939916992188,-0.2825157958984375,-0.1005564697265625,0.8244274809160306,-1.5419847328244274,-0.4732824427480916,-9.574412438964844,0.7493851196289062,-0.1292868896484375,0.5190839694656488,-0.916030534351145,0.030534351145038167,0
1.6600022315979004,-9.588777648925781,0.26815058593749996,-1.9943699829101562,-0.3816793893129771,0.8702290076335878,-0.15267175572519084,-9.670180505371093,-0.4333505004882812,-0.02154781494140625,0.7480916030534351,-1.3129770992366412,-0.44274809160305345,-9.78031378173828,0.737414111328125,0.0,1.1603053435114503,-1.0229007633587786,-0.07633587786259542,0
1.670003890991211,-9.706093530273437,0.28490999755859375,-1.7166425903320313,-0.5648854961832062,0.6106870229007634,-0.13740458015267176,-9.734823950195311,-0.46686932373046874,-0.17956512451171874,0.6717557251908397,-1.4351145038167938,-0.32061068702290074,-9.861716638183593,0.718260498046875,-0.3064578125,1.0534351145038168,-1.0076335877862594,-0.13740458015267176,0
1.6800017356872559,-9.782707983398437,0.2442085693359375,-1.5107412475585937,-0.6717557251908397,0.5801526717557252,-0.4580152671755725,-9.64623848876953,-0.28969840087890625,0.011971008300781249,0.7022900763358778,-0.9923664122137404,-0.4580152671755725,-9.87608184814453,0.7805097412109374,-0.02633621826171875,0.9770992366412213,-1.465648854961832,-0.42748091603053434,0
1.6900017261505127,-9.634267480468749,0.21068974609375,-1.8531120849609375,-0.7786259541984732,0.916030534351145,-0.061068702290076333,-9.648632690429688,-0.32561142578124996,-0.009576806640625,0.16793893129770993,-1.3435114503816794,-0.5038167938931297,-9.993397729492187,0.6655880615234374,-0.35673604736328124,1.0381679389312977,-1.4809160305343512,-0.22900763358778625,0
1.7000019550323486,-9.751583361816406,0.3232172241210937,-1.6017209106445311,-1.0076335877862594,0.916030534351145,-0.44274809160305345,-9.706093530273437,-0.3232172241210937,-0.062249243164062495,0.04580152671755725,-0.8091603053435115,-0.33587786259541985,-9.751583361816406,0.7230489013671875,-0.1149216796875,0.2748091603053435,-0.9618320610687023,-0.16793893129770993,0
1.7100017070770264,-9.6917283203125,0.24660277099609373,-1.419761584472656,-0.6412213740458015,0.8396946564885496,-0.44274809160305345,-9.600748657226562,-0.4213794921875,-0.076614453125,0.15267175572519084,-0.9770992366412213,-0.7175572519083969,-9.619902270507811,0.7685387329101562,-0.0047884033203125,0.4122137404580153,-1.0381679389312977,-0.13740458015267176,0
1.720001459121704,-9.64623848876953,0.2442085693359375,-1.7717092285156248,-0.9923664122137404,0.6717557251908397,-0.44274809160305345,-9.598354455566406,-0.411802685546875,0.047884033203124995,-0.0916030534351145,-0.8549618320610687,-0.5648854961832062,-9.746794958496093,0.6607996582031249,-0.4644751220703125,0.6106870229007634,-1.0229007633587786,0.15267175572519084,0
1.7300019264221191,-9.811438403320311,0.2609679809570312,-1.6400281372070311,-1.1603053435114503,0.5954198473282443,-0.15267175572519084,-9.753977563476562,-0.40940848388671874,-0.040701428222656245,-0.07633587786259542,-1.4198473282442747,-0.44274809160305345,-9.832986218261718,0.7565677246093749,-0.18435352783203124,-0.6564885496183206,-0.6717557251908397,0.33587786259541985,0
1.740001916885376,-9.65342109375,0.2825157958984375,-1.5275006591796874,-1.450381679389313,0.366412213740458,0.030534351145038167,-9.672574707031249,-0.488417138671875,-0.22026655273437498,-0.24427480916030533,-1.633587786259542,-0.2595419847328244,-9.6917283203125,0.8403647827148437,0.011971008300781249,-0.5190839694656488,-1.083969465648855,0.21374045801526717,0
1.7500016689300537,-9.813832604980469,0.258573779296875,-1.5562310791015623,-1.5267175572519085,1.0687022900763359,-0.1984732824427481,-9.694122521972655,-0.4525041137695312,-0.12689268798828124,-0.3969465648854962,-1.1297709923664123,-0.549618320610687,-9.86411083984375,0.86191259765625,0.03591302490234375,-1.1297709923664123,-1.0381679389312977,0.10687022900763359,0
1.7600016593933105,-9.674968908691406,0.34715924072265625,-1.7310078002929687,-1.5114503816793894,0.7480916030534351,-0.1984732824427481,-9.6917283203125,-0.40940848388671874,-0.076614453125,-0.9770992366412213,-1.1145038167938932,-0.2595419847328244,-9.93354268798828,0.8475473876953125,-0.0143652099609375,-0.8244274809160306,-1.3282442748091603,-0.015267175572519083,0
1.7700018882751465,-9.672574707031249,0.3136404174804687,-1.5035586425781249,-1.618320610687023,1.2366412213740459,-0.3969465648854962,-9.840168823242188,-0.4213794921875,-0.10295067138671875,-0.916030534351145,-1.1450381679389312,-0.5038167938931297,-9.847351428222655,0.41419688720703124,-0.29448680419921874,-0.2748091603053435,-1.1145038167938932,-0.12213740458015267,0
1.7800021171569824,-9.603142858886718,0.29927520751953124,-1.8914193115234375,-1.7557251908396947,1.2061068702290076,-0.42748091603053434,-9.567229833984374,-0.4213794921875,-0.13407529296874998,-1.0687022900763359,-1.3435114503816794,-0.2748091603053435,-9.794678991699218,0.8164227661132812,-0.2561795776367187,-0.6564885496183206,-1.3435114503816794,0.04580152671755725,0
1.7900018692016602,-9.7683427734375,0.2609679809570312,-1.5705962890624998,-1.984732824427481,1.2366412213740459,-0.5038167938931297,-9.679757312011718,-0.4477157104492187,-0.09576806640624999,-1.4351145038167938,-1.1297709923664123,-0.3816793893129771,-9.763554370117188,0.6679822631835937,0.02633621826171875,-0.5954198473282443,-1.1603053435114503,-0.030534351145038167,0
1.800002098083496,-9.809044201660155,0.26336218261718747,-1.4628572143554686,-2.0916030534351147,1.1755725190839694,-0.5190839694656488,-9.662997900390625,-0.3854664672851562,-0.09576806640624999,-1.3129770992366412,-1.1450381679389312,-0.4732824427480916,-9.763554370117188,0.9026140258789062,0.12689268798828124,-1.3740458015267176,-1.2366412213740459,-0.21374045801526717,0
1.8100018501281738,-9.789890588378906,0.28490999755859375,-1.4915876342773438,-2.3053435114503817,0.8549618320610687,-0.4122137404580153,-9.842563024902343,-0.38786066894531246,-0.062249243164062495,-1.450381679389313,-0.9465648854961832,-0.6717557251908397,-9.667786303710937,0.7948749511718749,-0.42377369384765623,-1.297709923664122,-1.1297709923664123,-0.2748091603053435,0
1.8200020790100098,-9.548076220703125,0.22266075439453123,-2.0374656127929685,-2.213740458015267,0.6106870229007634,-0.5190839694656488,-9.751583361816406,-0.51714755859375,-0.09337386474609374,-0.9770992366412213,-1.4809160305343512,-0.5038167938931297,-9.643844287109374,0.7972691528320313,-0.229843359375,-0.9465648854961832,-1.2213740458015268,-0.030534351145038167,0
1.8300015926361084,-9.821015209960937,0.24899697265624998,-1.3215993164062498,-2.0916030534351147,0.7633587786259542,-0.2748091603053435,-9.758765966796874,-0.6009446166992187,-0.258573779296875,-0.6412213740458015,-1.1450381679389312,-0.07633587786259542,-9.80665,0.7302315063476562,-0.3495534423828125,-0.8549618320610687,-1.0381679389312977,0.1984732824427481,0
1.8400022983551025,-9.708487731933593,0.1484405029296875,-1.6998831787109374,-1.6946564885496183,0.8549618320610687,-0.42748091603053434,-9.6917283203125,-0.4572925170898437,-0.05985504150390625,0.13740458015267176,-0.7022900763358778,-0.1984732824427481,-9.679757312011718,0.36631285400390623,-0.4644751220703125,-1.1450381679389312,-0.8396946564885496,-0.015267175572519083,0
1.8500018119812012,-9.708487731933593,0.1867477294921875,-1.6112977172851561,-1.6641221374045803,1.0381679389312977,-0.44274809160305345,-9.725247143554688,-0.411802685546875,-0.086191259765625,-0.0916030534351145,-1.0534351145038168,-0.5038167938931297,-9.794678991699218,0.603338818359375,-0.373495458984375,-0.3816793893129771,-0.7175572519083969,-0.183206106870229,0
1.860001802444458,-9.76116016845703,0.28730419921875,-1.3766659545898436,-1.8473282442748091,0.732824427480916,-0.22900763358778625,-9.512163195800781,-0.507570751953125,-0.22266075439453123,-0.10687022900763359,-1.1450381679389312,-0.13740458015267176,-9.763554370117188,0.5746083984375,-0.21068974609375,0.12213740458015267,-0.916030534351145,-0.10687022900763359,0
1.870002031326294,-9.689334118652344,0.23223756103515625,-1.668758557128906,-1.4045801526717556,1.0229007633587786,-0.7022900763358778,-9.557653027343749,-0.3280056274414062,-0.2154781494140625,-0.2900763358778626,-1.0534351145038168,-0.2900763358778626,-9.830592016601562,0.6081272216796875,-0.20829554443359374,0.2595419847328244,-0.9923664122137404,-0.07633587786259542,0
1.8800017833709717,-9.708487731933593,0.21068974609375,-1.678335363769531,-1.3587786259541985,0.8396946564885496,-0.8091603053435115,-9.74200655517578,-0.33039982910156246,-0.05985504150390625,-0.4580152671755725,-0.9465648854961832,-0.5038167938931297,-9.842563024902343,0.5961562133789062,-0.5865794067382812,0.5038167938931297,-1.1297709923664123,-0.3816793893129771,0
1.8900015354156494,-9.739612353515625,0.21787235107421873,-1.5011644409179687,-1.2366412213740459,0.8549618320610687,-0.6106870229007634,-9.80665,-0.507570751953125,-0.00718260498046875,-0.5648854961832062,-0.5801526717557252,-0.48854961832061067,-9.6917283203125,0.8379705810546875,-0.062249243164062495,0.13740458015267176,-1.2366412213740459,0.015267175572519083,0
1.9000020027160645,-9.543287817382812,0.229843359375,-1.9752163696289062,-0.8549618320610687,1.0229007633587786,-0.32061068702290074,-9.770736975097655,-0.46686932373046874,-0.12449848632812499,-0.4580152671755725,-0.732824427480916,-0.6259541984732825,-9.662997900390625,0.7709329345703124,0.11731588134765625,-0.015267175572519083,-1.1145038167938932,0.22900763358778625,0
1.9100024700164795,-9.739612353515625,0.201112939453125,-1.5658078857421873,-0.9312977099236641,0.6870229007633588,-0.1984732824427481,-9.667786303710937,-0.5123591552734374,-0.08140285644531249,-0.24427480916030533,-0.7633587786259542,-0.7175572519083969,-9.866505041503906,0.679953271484375,-0.055066638183593745,0.3053435114503817,-0.732824427480916,0.33587786259541985,0
1.920001745223999,-9.751583361816406,0.18435352783203124,-1.4867992309570313,-0.6259541984732825,0.6870229007633588,-0.24427480916030533,-9.775525378417969,-0.5363011718749999,-0.18435352783203124,-0.16793893129770993,-1.099236641221374,-0.2595419847328244,-9.670180505371093,0.49799394531249996,-0.3327940307617187,0.0916030534351145,-0.7938931297709924,-0.015267175572519083,0
1.9300038814544678,-9.785102185058593,0.17477672119140625,-1.3335703247070312,-0.3969465648854962,0.916030534351145,-0.5038167938931297,-9.667786303710937,-0.47644613037109373,-0.1484405029296875,0.5343511450381679,-1.0229007633587786,-0.030534351145038167,-9.751583361816406,0.7134720947265625,-0.055066638183593745,0.5190839694656488,-0.9465648854961832,0.2900763358778626,0
1.9400017261505127,-9.7683427734375,0.1867477294921875,-1.6472107421875,-0.0916030534351145,0.8549618320610687,-0.04580152671755725,-9.68454571533203,-0.4525041137695312,-0.08858546142578125,0.7480916030534351,-0.9770992366412213,-0.21374045801526717,-9.605537060546874,0.7613561279296874,-0.15322890625,0.5954198473282443,-1.3893129770992367,-0.0,0
1.9500021934509277,-9.706093530273437,0.2346317626953125,-1.5586252807617187,0.22900763358778625,1.0229007633587786,-0.24427480916030533,-9.797073193359374,-0.4285620971679687,-0.10295067138671875,1.099236641221374,-1.1908396946564885,-0.10687022900763359,-9.730035546875,0.833182177734375,0.11013327636718749,1.5725190839694656,-1.0534351145038168,0.4122137404580153,0
1.9600019454956055,-9.765948571777344,0.22744915771484372,-1.714248388671875,0.3053435114503817,0.9465648854961832,-0.42748091603053434,-9.794678991699218,-0.4429273071289062,-0.02633621826171875,0.9923664122137404,-0.7633587786259542,-0.183206106870229,-9.897629663085937,0.5506663818359374,-0.258573779296875,1.282442748091603,-0.9007633587786259,0.183206106870229,0
1.9700024127960205,-9.725247143554688,0.296881005859375,-1.6927005737304686,0.33587786259541985,1.0381679389312977,-0.3053435114503817,-9.792284790039062,-0.24181436767578124,-0.0143652099609375,1.1755725190839694,-0.8854961832061069,-0.4580152671755725,-9.68454571533203,0.5913678100585937,-0.16759411621093748,1.633587786259542,-1.099236641221374,0.07633587786259542,0
1.9800019264221191,-9.835380419921874,0.25139117431640623,-1.4341267944335936,0.183206106870229,0.5648854961832062,-0.2595419847328244,-9.847351428222655,-0.4860229370117187,-0.031124621582031248,0.7175572519083969,-1.1603053435114503,-0.33587786259541985,-9.598354455566406,0.8499415893554687,0.062249243164062495,1.4809160305343512,-1.1450381679389312,-0.030534351145038167,0
1.990001916885376,-9.674968908691406,0.2561795776367187,-1.695094775390625,0.12213740458015267,0.6106870229007634,-0.16793893129770993,-9.670180505371093,-0.55545478515625,-0.12210428466796874,1.1908396946564885,-1.3282442748091603,-0.13740458015267176,-9.732429748535155,0.5961562133789062,-0.4381389038085937,1.450381679389313,-1.2366412213740459,-0.12213740458015267,0
2.000002145767212,-9.629479077148437,0.29927520751953124,-1.889025109863281,0.16793893129770993,0.2595419847328244,0.13740458015267176,-9.634267480468749,-0.5027823486328125,-0.1580173095703125,1.282442748091603,-1.1755725190839694,-0.061068702290076333,-9.651026892089844,0.9026140258789062,-0.30406361083984373,1.0076335877862594,-1.1755725190839694,-0.15267175572519084,0
2.0100018978118896,-9.710881933593749,0.30406361083984373,-1.4987702392578124,0.3053435114503817,0.549618320610687,-0.24427480916030533,-9.749189160156249,-0.4955997436523437,-0.13407529296874998,1.3129770992366412,-0.9312977099236641,-0.3053435114503817,-9.744400756835937,0.6153098266601562,-0.6943184814453125,1.3587786259541985,-1.282442748091603,0.12213740458015267,0
2.0200023651123047,-9.751583361816406,0.29448680419921874,-1.5538368774414062,0.04580152671755725,0.5190839694656488,-0.183206106870229,-9.749189160156249,-0.46686932373046874,-0.13407529296874998,1.7404580152671756,-0.9618320610687023,-0.21374045801526717,-9.655815295410155,0.8212111694335937,-0.4070142822265625,0.8244274809160306,-1.1603053435114503,0.030534351145038167,0
2.0300021171569824,-9.6151138671875,0.3016694091796875,-1.7501614135742187,0.2595419847328244,0.32061068702290074,-0.24427480916030533,-9.792284790039062,-0.3711012573242187,-0.09337386474609374,1.1603053435114503,-0.9312977099236641,-0.3053435114503817,-9.775525378417969,0.6919242797851562,-0.47644613037109373,0.42748091603053434,-1.4198473282442747,0.07633587786259542,0
2.0400023460388184,-9.698910925292969,0.258573779296875,-1.6136919189453125,-0.0916030534351145,0.3969465648854962,-0.3053435114503817,-9.7683427734375,-0.41898529052734373,-0.16041151123046873,0.8396946564885496,-1.0687022900763359,-0.07633587786259542,-9.694122521972655,0.6919242797851562,-0.5578489868164063,0.732824427480916,-0.8549618320610687,0.24427480916030533,0
2.050001621246338,-9.758765966796874,0.29927520751953124,-1.5346832641601562,-0.1984732824427481,0.6717557251908397,0.030534351145038167,-9.696516723632811,-0.33758243408203126,0.011971008300781249,0.8396946564885496,-0.6106870229007634,-0.32061068702290074,-9.53131680908203,0.8451531860351562,-0.08858546142578125,0.7633587786259542,-0.9923664122137404,0.33587786259541985,0
2.060001850128174,-9.840168823242188,0.2753331909179687,-1.4700398193359374,-0.24427480916030533,0.32061068702290074,0.030534351145038167,-9.612719665527344,-0.39743747558593745,0.05027823486328125,0.5343511450381679,-0.6106870229007634,-0.42748091603053434,-9.78031378173828,0.6440402465820312,-0.6536170532226562,-0.1984732824427481,-1.2213740458015268,0.33587786259541985,0
2.0700018405914307,-9.773131176757811,0.28490999755859375,-1.3072341064453123,-0.32061068702290074,0.5801526717557252,-0.13740458015267176,-9.660603698730467,-0.4333505004882812,-0.062249243164062495,0.6564885496183206,-0.6564885496183206,-0.3053435114503817,-9.739612353515625,0.6081272216796875,-0.5003881469726562,-0.0916030534351145,-1.0381679389312977,0.12213740458015267,0
2.0800015926361084,-9.718064538574218,0.2705447875976562,-1.66636435546875,-0.4122137404580153,0.7175572519083969,-0.10687022900763359,-9.672574707031249,-0.4381389038085937,-0.055066638183593745,0.3816793893129771,-0.8091603053435115,-0.33587786259541985,-9.6917283203125,0.6631938598632812,-0.3136404174804687,-0.07633587786259542,-0.8244274809160306,0.0916030534351145,0
2.0900020599365234,-9.679757312011718,0.3112462158203125,-1.6136919189453125,-0.5038167938931297,0.6870229007633588,-0.183206106870229,-9.718064538574218,-0.411802685546875,-0.09337386474609374,0.12213740458015267,-0.8244274809160306,-0.3511450381679389,-9.74200655517578,0.6751648681640625,-0.22266075439453123,0.7786259541984732,-0.5648854961832062,0.04580152671755725,0
2.100001811981201,-9.660603698730467,0.354341845703125,-1.484405029296875,-0.7786259541984732,0.6412213740458015,-0.22900763358778625,-9.744400756835937,-0.28012159423828126,-0.0143652099609375,-0.10687022900763359,-0.7480916030534351,-0.10687022900763359,-9.861716638183593,0.842758984375,-0.24181436767578124,1.1297709923664123,-0.6259541984732825,0.15267175572519084,0
2.110001802444458,-9.6151138671875,0.3591302490234375,-1.5849614990234373,-0.5801526717557252,0.6412213740458015,-0.3511450381679389,-9.624690673828125,-0.32082302246093747,-0.033518823242187495,-0.7633587786259542,-0.7480916030534351,-0.21374045801526717,-9.782707983398437,0.9744400756835937,-0.06703764648437499,0.8854961832061069,-1.1908396946564885,0.2748091603053435,0
2.120002269744873,-9.80665,0.29448680419921874,-1.438915197753906,-0.9618320610687023,0.8091603053435115,-0.15267175572519084,-9.65342109375,-0.4165910888671875,0.023942016601562498,-0.9465648854961832,-0.7175572519083969,0.030534351145038167,-9.861716638183593,0.6823474731445313,-0.47644613037109373,1.1450381679389312,-0.9923664122137404,0.15267175572519084,0
2.130002737045288,-9.801861596679688,0.3232172241210937,-1.4867992309570313,-1.099236641221374,0.7480916030534351,-0.21374045801526717,-9.495403784179686,-0.3950432739257812,0.028730419921875,-0.6870229007633588,-0.6717557251908397,-0.22900763358778625,-9.74200655517578,0.82360537109375,-0.04548983154296875,0.5190839694656488,-0.9770992366412213,-0.12213740458015267,0
2.1400022506713867,-9.591171850585937,0.316034619140625,-1.7118541870117185,-1.0534351145038168,0.6564885496183206,-0.3969465648854962,-9.68454571533203,-0.488417138671875,-0.0909796630859375,-0.44274809160305345,-1.0229007633587786,-0.0,-9.849745629882811,0.5219359619140624,-0.565031591796875,0.3053435114503817,-1.083969465648855,0.44274809160305345,0
2.1500017642974854,-9.70369932861328,0.24899697265624998,-1.5538368774414062,-1.1297709923664123,0.5648854961832062,-0.07633587786259542,-9.658209497070311,-0.49320554199218747,-0.07900865478515624,0.13740458015267176,-1.0229007633587786,-0.16793893129770993,-9.665392102050781,0.7757213378906249,-0.2825157958984375,-0.6564885496183206,-1.618320610687023,0.4122137404580153,0
2.1600022315979004,-9.72285294189453,0.22505495605468748,-1.6208745239257811,-1.1145038167938932,0.8549618320610687,-0.2748091603053435,-9.787496386718749,-0.28490999755859375,-0.009576806640625,-0.32061068702290074,-0.9312977099236641,-0.07633587786259542,-9.727641345214844,0.689530078125,-0.4836287353515625,-0.3053435114503817,-1.1908396946564885,-0.030534351145038167,0
2.17000150680542,-9.610325463867188,0.23702596435546874,-1.8602946899414061,-1.3587786259541985,0.7480916030534351,-0.4580152671755725,-9.744400756835937,-0.41419688720703124,0.00239420166015625,-0.33587786259541985,-0.9007633587786259,-0.183206106870229,-9.938331091308592,0.6679822631835937,-0.5363011718749999,0.10687022900763359,-0.8396946564885496,0.15267175572519084,0
2.1800014972686768,-9.619902270507811,0.19393033447265623,-1.8698714965820311,-1.1297709923664123,0.7786259541984732,-0.44274809160305345,-9.581595043945311,-0.38307226562499996,-0.11731588134765625,0.0,-0.9770992366412213,-0.2900763358778626,-9.835380419921874,0.8379705810546875,-0.26336218261718747,-0.48854961832061067,-1.0381679389312977,0.16793893129770993,0
2.1900017261505127,-9.734823950195311,0.2657563842773437,-1.695094775390625,-1.2061068702290076,0.549618320610687,-0.366412213740458,-9.648632690429688,-0.4070142822265625,-0.009576806640625,-0.4580152671755725,-0.8091603053435115,-0.33587786259541985,-9.765948571777344,0.5817910034179687,-0.4477157104492187,-0.2595419847328244,-0.8244274809160306,-0.030534351145038167,0
2.2000017166137695,-9.730035546875,0.3136404174804687,-1.4724340209960938,-1.0381679389312977,1.083969465648855,-0.07633587786259542,-9.648632690429688,-0.41898529052734373,-0.143652099609375,0.04580152671755725,-0.7480916030534351,-0.10687022900763359,-9.651026892089844,0.7852981445312499,-0.3447650390625,-0.183206106870229,-1.0229007633587786,0.0916030534351145,0
2.2100021839141846,-9.610325463867188,0.20829554443359374,-1.8339584716796873,-1.2366412213740459,0.8244274809160306,-0.21374045801526717,-9.622296472167967,-0.4285620971679687,-0.1580173095703125,0.2900763358778626,-0.8244274809160306,-0.061068702290076333,-9.679757312011718,0.4213794921875,-0.7852981445312499,-0.8702290076335878,-0.9312977099236641,0.16793893129770993,0
2.2200019359588623,-9.770736975097655,0.17956512451171874,-1.7453730102539062,-0.9007633587786259,0.6870229007633588,-0.549618320610687,-9.686939916992188,-0.3591302490234375,-0.14125789794921875,0.04580152671755725,-0.8854961832061069,-0.10687022900763359,-9.79946739501953,0.6368576416015624,-0.15562310791015624,-0.549618320610687,-0.4732824427480916,0.24427480916030533,0
2.2300021648406982,-9.641450085449218,0.21068974609375,-1.5227122558593749,-0.9770992366412213,0.8091603053435115,-0.2900763358778626,-9.689334118652344,-0.4285620971679687,-0.09816226806640624,0.015267175572519083,-0.9923664122137404,0.13740458015267176,-9.835380419921874,0.612915625,-0.4644751220703125,-0.1984732824427481,-1.2366412213740459,-0.04580152671755725,0
2.2400033473968506,-9.670180505371093,0.19632453613281248,-1.668758557128906,-0.7938931297709924,0.732824427480916,-0.44274809160305345,-9.68454571533203,-0.5027823486328125,-0.23702596435546874,0.4122137404580153,-0.6870229007633588,-0.07633587786259542,-9.785102185058593,0.8714894042968749,0.047884033203124995,-0.22900763358778625,-1.4045801526717556,0.04580152671755725,0
2.250002145767212,-9.627084875488281,0.12689268798828124,-1.7788918334960937,-0.7480916030534351,0.5038167938931297,-0.3511450381679389,-9.655815295410155,-0.40940848388671874,-0.18914193115234373,0.33587786259541985,-0.8244274809160306,0.15267175572519084,-9.732429748535155,0.9169792358398436,0.05027823486328125,-0.0916030534351145,-1.1755725190839694,0.15267175572519084,0
2.2600018978118896,-9.734823950195311,0.21787235107421873,-1.4939818359375,-0.732824427480916,1.0076335877862594,-0.4732824427480916,-9.677363110351562,-0.3399766357421875,-0.08858546142578125,0.10687022900763359,-0.549618320610687,-0.0,-9.809044201660155,0.37828386230468747,-0.7613561279296874,0.732824427480916,-1.2366412213740459,0.0916030534351145,0
2.270002603530884,-9.598354455566406,0.19393033447265623,-1.879448303222656,-0.5801526717557252,0.8854961832061069,-0.4732824427480916,-9.727641345214844,-0.40940848388671874,-0.143652099609375,-0.6717557251908397,-0.6259541984732825,-0.061068702290076333,-9.763554370117188,0.8571241943359375,-0.25139117431640623,0.7786259541984732,-1.251908396946565,-0.13740458015267176,0
2.2800023555755615,-9.80665,0.21308394775390624,-1.5418658691406248,-0.5190839694656488,0.6870229007633588,-0.366412213740458,-9.694122521972655,-0.4261678955078125,-0.11013327636718749,-0.22900763358778625,-1.1297709923664123,-0.3053435114503817,-9.777919580078125,0.2705447875976562,-0.9050082275390624,0.21374045801526717,-1.1908396946564885,-0.07633587786259542,0
2.290001630783081,-9.777919580078125,0.24660277099609373,-1.448492004394531,-0.3816793893129771,0.6106870229007634,-0.2748091603053435,-9.7683427734375,-0.39983167724609375,-0.07422025146484375,-0.1984732824427481,-0.9923664122137404,0.061068702290076333,-9.734823950195311,0.6272808349609375,-0.6512228515624999,0.3511450381679389,-0.8549618320610687,-0.061068702290076333,0
2.300001859664917,-9.777919580078125,0.24181436767578124,-1.618480322265625,-0.4122137404580153,0.6259541984732825,-0.5190839694656488,-9.85692823486328,-0.488417138671875,-0.06943184814453125,0.04580152671755725,-1.0534351145038168,-0.1984732824427481,-9.763554370117188,0.7517793212890624,-0.46208092041015625,0.8396946564885496,-0.7633587786259542,0.0916030534351145,0
2.310002088546753,-9.744400756835937,0.19153613281249998,-1.4604630126953124,-0.5343511450381679,0.549618320610687,-0.3053435114503817,-9.449913952636718,-0.47644613037109373,-0.2154781494140625,0.5190839694656488,-1.4961832061068703,-0.07633587786259542,-9.840168823242188,0.6703764648437499,-0.6943184814453125,1.3129770992366412,-0.9007633587786259,-0.07633587786259542,0
2.320002317428589,-9.773131176757811,0.2705447875976562,-1.5203180541992187,-0.48854961832061067,0.7175572519083969,-0.366412213740458,-9.6151138671875,-0.4525041137695312,-0.062249243164062495,0.030534351145038167,-1.1297709923664123,0.015267175572519083,-9.655815295410155,0.833182177734375,-0.19632453613281248,0.44274809160305345,-0.8549618320610687,0.030534351145038167,0
2.3300015926361084,-9.605537060546874,0.239420166015625,-1.7549498168945312,-0.4732824427480916,0.7786259541984732,-0.15267175572519084,-9.720458740234374,-0.39264907226562495,-0.09576806640624999,0.5954198473282443,-1.3740458015267176,0.015267175572519083,-9.545682019042967,0.7278373046875,-0.258573779296875,0.16793893129770993,-0.8396946564885496,0.2595419847328244,0
2.3400020599365234,-9.739612353515625,0.18914193115234373,-1.6352397338867186,-0.07633587786259542,0.48854961832061067,-0.16793893129770993,-9.696516723632811,-0.37828386230468747,-0.07900865478515624,0.6870229007633588,-0.9312977099236641,-0.16793893129770993,-9.952696301269532,0.8714894042968749,-0.5123591552734374,0.366412213740458,-0.7633587786259542,0.4580152671755725,0
2.350001573562622,-9.763554370117188,0.23702596435546874,-1.37906015625,-0.21374045801526717,0.5343511450381679,-0.4122137404580153,-9.698910925292969,-0.39264907226562495,-0.0909796630859375,0.8396946564885496,-1.3587786259541985,0.0916030534351145,-9.617508068847656,0.8116343627929687,0.05027823486328125,0.4580152671755725,-1.1755725190839694,-0.10687022900763359,0
2.360003709793091,-9.739612353515625,0.2442085693359375,-1.5490484741210937,-0.24427480916030533,0.7938931297709924,-0.33587786259541985,-9.612719665527344,-0.40940848388671874,-0.05985504150390625,1.3282442748091603,-1.1908396946564885,-0.04580152671755725,-9.746794958496093,0.7900865478515624,-0.2753331909179687,0.5038167938931297,-1.1450381679389312,0.12213740458015267,0
2.370001792907715,-9.739612353515625,0.239420166015625,-1.5203180541992187,-0.33587786259541985,0.9007633587786259,-0.42748091603053434,-9.526528405761718,-0.3950432739257812,-0.02633621826171875,0.5954198473282443,-0.7175572519083969,-0.030534351145038167,-9.689334118652344,0.8858546142578124,-0.19153613281249998,0.3816793893129771,-1.2061068702290076,-0.16793893129770993,0
2.380002021789551,-9.809044201660155,0.20350714111328125,-1.4604630126953124,-0.6259541984732825,0.5343511450381679,-0.3816793893129771,-9.641450085449218,-0.36631285400390623,-0.07422025146484375,0.183206106870229,-0.7480916030534351,-0.030534351145038167,-9.746794958496093,0.7876923461914062,-0.16280571289062498,0.9618320610687023,-1.0076335877862594,0.16793893129770993,0
2.3900012969970703,-9.660603698730467,0.2561795776367187,-1.4987702392578124,-0.5038167938931297,0.2900763358778626,-0.4580152671755725,-9.706093530273437,-0.35673604736328124,-0.12210428466796874,0.015267175572519083,-0.6870229007633588,0.07633587786259542,-9.610325463867188,0.679953271484375,-0.39983167724609375,0.44274809160305345,-1.3129770992366412,0.15267175572519084,0
2.4000022411346436,-9.713276135253906,0.19871873779296872,-1.6615759521484375,-0.6259541984732825,0.6412213740458015,-0.6106870229007634,-9.804255798339844,-0.33518823242187495,-0.11252747802734374,-0.2900763358778626,-0.8549618320610687,-0.15267175572519084,-9.804255798339844,0.7110778930664062,-0.45968671875,0.7175572519083969,-1.0076335877862594,-0.0916030534351145,0
2.410001516342163,-9.665392102050781,0.20829554443359374,-1.6256629272460936,-0.8244274809160306,0.3816793893129771,-0.24427480916030533,-9.763554370117188,-0.4477157104492187,-0.16759411621093748,-0.3816793893129771,-0.9465648854961832,-0.0916030534351145,-9.476250170898437,0.7326257080078125,-0.3232172241210937,0.10687022900763359,-1.0381679389312977,0.07633587786259542,0
2.420001983642578,-9.725247143554688,0.20829554443359374,-1.5586252807617187,-0.6259541984732825,0.7480916030534351,-0.4122137404580153,-9.737218151855469,-0.4333505004882812,0.0430956298828125,-0.3511450381679389,-0.8702290076335878,-0.5190839694656488,-9.753977563476562,0.7661445312499999,-0.4213794921875,0.22900763358778625,-0.9923664122137404,-0.015267175572519083,0
2.430001735687256,-9.732429748535155,0.25139117431640623,-1.62805712890625,-0.6106870229007634,0.5801526717557252,-0.04580152671755725,-9.698910925292969,-0.4261678955078125,-0.05027823486328125,-0.030534351145038167,-0.9770992366412213,-0.366412213740458,-9.648632690429688,0.718260498046875,-0.44053310546874996,-0.0916030534351145,-0.7175572519083969,-0.061068702290076333,0
2.4400038719177246,-9.713276135253906,0.20829554443359374,-1.5346832641601562,-0.7175572519083969,0.9007633587786259,-0.12213740458015267,-9.76116016845703,-0.4525041137695312,-0.062249243164062495,0.0916030534351145,-1.099236641221374,-0.5190839694656488,-9.8449572265625,0.507570751953125,-0.6943184814453125,0.1984732824427481,-0.4732824427480916,-0.015267175572519083,0
2.4500017166137695,-9.698910925292969,0.296881005859375,-1.5370774658203123,-0.8702290076335878,0.22900763358778625,-0.366412213740458,-9.797073193359374,-0.4381389038085937,-0.22744915771484372,0.2900763358778626,-1.1297709923664123,-0.0916030534351145,-9.624690673828125,0.612915625,-0.6631938598632812,-0.549618320610687,-1.1908396946564885,-0.16793893129770993,0
2.4600026607513428,-9.710881933593749,0.19632453613281248,-1.7166425903320313,-0.6564885496183206,0.4732824427480916,-0.1984732824427481,-9.782707983398437,-0.2753331909179687,-0.1005564697265625,0.24427480916030533,-1.297709923664122,-0.42748091603053434,-9.859322436523437,0.5434837768554687,-0.3687070556640625,0.3053435114503817,-1.0381679389312977,-0.07633587786259542,0
2.470001697540283,-9.816226806640625,0.28490999755859375,-1.4628572143554686,-1.0534351145038168,0.3511450381679389,-0.4732824427480916,-9.854534033203125,-0.469263525390625,-0.20829554443359374,0.0,-1.099236641221374,-0.0,-9.730035546875,0.4070142822265625,-0.9097966308593749,-0.12213740458015267,-1.3129770992366412,-0.015267175572519083,0
2.480001449584961,-9.674968908691406,0.2442085693359375,-1.608903515625,-1.099236641221374,0.916030534351145,-0.5038167938931297,-9.634267480468749,-0.3950432739257812,-0.086191259765625,0.015267175572519083,-0.9312977099236641,-0.10687022900763359,-9.801861596679688,0.7924807495117187,-0.2705447875976562,0.24427480916030533,-0.9007633587786259,0.4122137404580153,0
2.490002155303955,-9.751583361816406,0.2705447875976562,-1.388636962890625,-1.2366412213740459,0.5648854961832062,-0.5954198473282443,-9.548076220703125,-0.4381389038085937,-0.15562310791015624,-0.44274809160305345,-0.8702290076335878,-0.07633587786259542,-9.811438403320311,0.7565677246093749,-0.229843359375,0.5343511450381679,-1.0229007633587786,0.15267175572519084,0
2.500001907348633,-9.679757312011718,0.21787235107421873,-1.8100164550781248,-1.1450381679389312,0.7480916030534351,-0.44274809160305345,-9.739612353515625,-0.34237083740234375,-0.0383072265625,-0.5648854961832062,-1.1908396946564885,-0.0916030534351145,-9.595960253906249,0.7757213378906249,-0.48123453369140623,-1.5572519083969465,-1.1755725190839694,0.15267175572519084,0
2.5100018978118896,-9.662997900390625,0.2825157958984375,-1.6543933471679686,-1.3740458015267176,0.6412213740458015,-0.030534351145038167,-9.6917283203125,-0.40222587890625,-0.2442085693359375,-0.4122137404580153,-1.2366412213740459,-0.1984732824427481,-9.840168823242188,0.6464344482421874,-0.469263525390625,0.0,-0.8396946564885496,0.030534351145038167,0
2.5200023651123047,-9.624690673828125,0.19632453613281248,-1.6352397338867186,-1.1603053435114503,0.7786259541984732,-0.5038167938931297,-9.710881933593749,-0.36152445068359373,-0.0718260498046875,-0.2748091603053435,-0.8396946564885496,-0.13740458015267176,-9.586383447265625,0.7493851196289062,-0.20829554443359374,-0.549618320610687,-1.3129770992366412,-0.0,0
2.5300021171569824,-9.672574707031249,0.2442085693359375,-1.7429788085937499,-0.8549618320610687,0.5954198473282443,-0.6412213740458015,-9.679757312011718,-0.30885201416015623,-0.08858546142578125,-0.22900763358778625,-1.0687022900763359,0.12213740458015267,-9.698910925292969,0.6655880615234374,-0.44532150878906246,-0.6259541984732825,-0.9618320610687023,0.0916030534351145,0
2.54000186920166,-9.758765966796874,0.2825157958984375,-1.5945383056640625,-1.4045801526717556,0.5954198473282443,-0.5343511450381679,-9.706093530273437,-0.51714755859375,-0.12689268798828124,-0.6259541984732825,-0.8396946564885496,0.2748091603053435,-9.878476049804688,0.6775590698242188,-0.3232172241210937,-0.15267175572519084,-0.8244274809160306,0.13740458015267176,0
2.550002098083496,-9.789890588378906,0.23702596435546874,-1.5370774658203123,-1.1908396946564885,0.6717557251908397,-0.44274809160305345,-9.773131176757811,-0.49320554199218747,-0.1867477294921875,-0.33587786259541985,-0.916030534351145,0.04580152671755725,-9.746794958496093,0.5722141967773438,-0.603338818359375,-0.4580152671755725,-1.3129770992366412,0.0916030534351145,0
2.560002088546753,-9.617508068847656,0.2705447875976562,-1.687912170410156,-1.1450381679389312,0.4580152671755725,-0.3969465648854962,-9.68454571533203,-0.4644751220703125,-0.12689268798828124,-0.5648854961832062,-1.2213740458015268,-0.10687022900763359,-9.651026892089844,0.928950244140625,0.1149216796875,-0.366412213740458,-0.9923664122137404,0.21374045801526717,0
2.5700013637542725,-9.868899243164062,0.2657563842773437,-1.2569558715820313,-1.083969465648855,0.732824427480916,-0.366412213740458,-9.68454571533203,-0.5291185668945312,-0.229843359375,-0.5038167938931297,-1.4045801526717556,-0.015267175572519083,-9.627084875488281,0.7230489013671875,0.00239420166015625,-0.9312977099236641,-1.251908396946565,0.3053435114503817,0
2.5800020694732666,-9.756371765136718,0.15083470458984374,-1.6927005737304686,-1.1755725190839694,0.5190839694656488,-0.2748091603053435,-9.677363110351562,-0.5003881469726562,-0.1292868896484375,-0.15267175572519084,-1.0381679389312977,0.04580152671755725,-9.885658654785155,0.8164227661132812,-0.2561795776367187,-0.42748091603053434,-1.0076335877862594,0.16793893129770993,0
2.5900018215179443,-9.789890588378906,0.2537853759765625,-1.448492004394531,-1.2213740458015268,0.6870229007633588,-0.24427480916030533,-9.739612353515625,-0.5147533569335937,-0.3112462158203125,0.4732824427480916,-0.8396946564885496,-0.24427480916030533,-9.686939916992188,0.4955997436523437,-0.3591302490234375,-1.099236641221374,-0.8091603053435115,0.32061068702290074,0
2.6000020503997803,-9.674968908691406,0.2657563842773437,-1.5801730957031248,-1.0534351145038168,0.42748091603053434,-0.42748091603053434,-9.74200655517578,-0.4333505004882812,-0.16759411621093748,0.15267175572519084,-0.6106870229007634,-0.015267175572519083,-9.880870251464843,0.6416460449218749,-0.44053310546874996,-0.24427480916030533,-0.32061068702290074,0.3511450381679389,0
2.610001802444458,-9.45470235595703,0.17238251953125,-2.0661960327148434,-0.9618320610687023,0.33587786259541985,-0.1984732824427481,-9.627084875488281,-0.4381389038085937,-0.16280571289062498,-0.32061068702290074,-0.6564885496183206,-0.22900763358778625,-9.739612353515625,0.39983167724609375,-0.737414111328125,-0.6412213740458015,-1.1450381679389312,0.3053435114503817,0
2.620002031326294,-9.746794958496093,0.277727392578125,-1.4149731811523436,-0.6564885496183206,0.42748091603053434,-0.21374045801526717,-9.7683427734375,-0.4285620971679687,-0.08858546142578125,-0.07633587786259542,-0.9770992366412213,-0.030534351145038167,-9.804255798339844,0.9337386474609375,-0.0909796630859375,-0.5801526717557252,-1.0229007633587786,-0.0,0
2.630002021789551,-9.634267480468749,0.2346317626953125,-1.7453730102539062,-0.732824427480916,0.42748091603053434,-0.183206106870229,-9.572018237304688,-0.4285620971679687,-0.05746083984375,-0.21374045801526717,-0.6106870229007634,-0.0916030534351145,-9.643844287109374,0.4572925170898437,-0.7852981445312499,-0.8244274809160306,-1.1297709923664123,0.030534351145038167,0
2.6400015354156494,-9.701305126953125,0.16998831787109375,-1.6639701538085936,-0.6106870229007634,0.4122137404580153,-0.3969465648854962,-9.74200655517578,-0.51714755859375,-0.1197100830078125,-0.16793893129770993,-0.8549618320610687,-0.015267175572519083,-9.830592016601562,0.7206546997070312,-0.296881005859375,-0.3053435114503817,-1.3587786259541985,0.0916030534351145,0
2.6500022411346436,-9.744400756835937,0.27293898925781246,-1.5059528442382812,-0.6564885496183206,0.7786259541984732,-0.21374045801526717,-9.72285294189453,-0.4070142822265625,-0.13646949462890623,0.3053435114503817,-0.7022900763358778,-0.15267175572519084,-9.64623848876953,0.34715924072265625,-0.7038952880859375,0.3816793893129771,-1.4045801526717556,0.15267175572519084,0
2.660001754760742,-9.6917283203125,0.17956512451171874,-1.697488977050781,-0.5801526717557252,0.7786259541984732,-0.15267175572519084,-9.706093530273437,-0.42377369384765623,-0.11731588134765625,0.16793893129770993,-1.0229007633587786,-0.12213740458015267,-9.85692823486328,0.63206923828125,-0.5458779785156249,0.2595419847328244,-1.1908396946564885,-0.12213740458015267,0
2.6700022220611572,-9.557653027343749,0.15322890625,-1.9608511596679685,-0.8091603053435115,0.3816793893129771,-0.04580152671755725,-9.662997900390625,-0.33758243408203126,0.07422025146484375,-0.32061068702290074,-1.0534351145038168,-0.22900763358778625,-9.720458740234374,0.7302315063476562,-0.1149216796875,0.9007633587786259,-1.7099236641221374,-0.07633587786259542,0
2.680001735687256,-9.74200655517578,0.23702596435546874,-1.5586252807617187,-0.7480916030534351,0.8702290076335878,0.15267175572519084,-9.787496386718749,-0.38307226562499996,0.023942016601562498,-0.030534351145038167,-1.1755725190839694,-0.22900763358778625,-9.809044201660155,0.565031591796875,-0.5003881469726562,0.7480916030534351,-1.5877862595419847,-0.21374045801526717,0
2.690002202987671,-9.689334118652344,0.2442085693359375,-1.6639701538085936,-0.3511450381679389,0.6717557251908397,0.030534351145038167,-9.598354455566406,-0.4381389038085937,-0.086191259765625,0.13740458015267176,-1.0229007633587786,-0.030534351145038167,-9.662997900390625,0.6440402465820312,-0.5434837768554687,0.366412213740458,-1.282442748091603,-0.183206106870229,0
2.7000019550323486,-9.753977563476562,0.24181436767578124,-1.5442600708007812,-0.8244274809160306,0.8549618320610687,-0.21374045801526717,-9.662997900390625,-0.507570751953125,-0.11252747802734374,0.22900763358778625,-1.297709923664122,-0.15267175572519084,-9.648632690429688,0.45968671875,-0.5626373901367188,0.6259541984732825,-1.3282442748091603,-0.21374045801526717,0
2.7100017070770264,-9.789890588378906,0.23223756103515625,-1.6208745239257811,-0.21374045801526717,0.5343511450381679,-0.3511450381679389,-9.706093530273437,-0.411802685546875,-0.08379705810546874,0.2748091603053435,-0.7175572519083969,-0.13740458015267176,-9.677363110351562,0.6368576416015624,-0.5243301635742187,0.10687022900763359,-1.083969465648855,-0.1984732824427481,0
2.7200019359588623,-9.622296472167967,0.2154781494140625,-1.7717092285156248,-0.16793893129770993,0.8396946564885496,0.12213740458015267,-9.730035546875,-0.28490999755859375,-0.14125789794921875,0.4580152671755725,-1.1755725190839694,-0.22900763358778625,-9.758765966796874,0.70868369140625,-0.39983167724609375,0.7022900763358778,-0.6259541984732825,0.04580152671755725,0
2.73000168800354,-9.598354455566406,0.22266075439453123,-1.8722656982421875,-0.7480916030534351,0.7480916030534351,-0.48854961832061067,-9.789890588378906,-0.4070142822265625,-0.16280571289062498,0.7633587786259542,-1.083969465648855,-0.33587786259541985,-9.560047229003906,0.8571241943359375,-0.01915361328125,0.42748091603053434,-1.1450381679389312,-0.24427480916030533,0
2.740002155303955,-9.557653027343749,0.26815058593749996,-1.9393033447265624,-0.5954198473282443,0.6717557251908397,-0.3969465648854962,-9.694122521972655,-0.2657563842773437,-0.040701428222656245,0.3816793893129771,-1.2061068702290076,-0.42748091603053434,-9.572018237304688,0.8762778076171874,-0.1149216796875,-0.22900763358778625,-1.3893129770992367,0.04580152671755725,0
2.750002145767212,-9.770736975097655,0.22744915771484372,-1.4437036010742186,-0.5343511450381679,0.6870229007633588,-0.5648854961832062,-9.732429748535155,-0.36391865234375,-0.22505495605468748,0.44274809160305345,-1.0076335877862594,0.04580152671755725,-9.536105212402344,0.7062894897460937,-0.5961562133789062,-0.15267175572519084,-1.1908396946564885,-0.33587786259541985,0
2.7600033283233643,-9.701305126953125,0.22266075439453123,-1.8100164550781248,-0.8854961832061069,0.5648854961832062,-0.2900763358778626,-9.624690673828125,-0.2561795776367187,-0.0909796630859375,0.15267175572519084,-1.1297709923664123,0.15267175572519084,-9.931148486328125,0.46208092041015625,-0.8116343627929687,0.7175572519083969,-1.2213740458015268,0.04580152671755725,0
2.7700023651123047,-9.749189160156249,0.16759411621093748,-1.6472107421875,-0.8396946564885496,0.7633587786259542,-0.32061068702290074,-9.821015209960937,-0.411802685546875,-0.1197100830078125,-0.04580152671755725,-0.9465648854961832,-0.12213740458015267,-9.751583361816406,0.5913678100585937,-0.7015010864257812,0.10687022900763359,-1.4198473282442747,-0.3969465648854962,0
2.780001640319824,-9.928754284667969,0.26336218261718747,-1.24498486328125,-0.8702290076335878,0.732824427480916,-0.21374045801526717,-9.816226806640625,-0.3902548706054687,-0.11731588134765625,-0.366412213740458,-1.083969465648855,-0.4732824427480916,-9.847351428222655,0.5602431884765625,-0.6823474731445313,0.33587786259541985,-0.9312977099236641,0.061068702290076333,0
2.7900021076202393,-9.631873278808593,0.26815058593749996,-1.9488801513671874,-1.0534351145038168,0.6412213740458015,-0.33587786259541985,-9.622296472167967,-0.3806780639648437,-0.1149216796875,-0.3816793893129771,-1.2366412213740459,-0.21374045801526717,-9.662997900390625,0.8020575561523438,-0.4070142822265625,-0.6259541984732825,-1.1908396946564885,0.061068702290076333,0
2.800001859664917,-9.763554370117188,0.3136404174804687,-1.419761584472656,-0.7786259541984732,1.0076335877862594,0.04580152671755725,-9.732429748535155,-0.4333505004882812,-0.16759411621093748,-0.4580152671755725,-1.450381679389313,-0.15267175572519084,-9.813832604980469,0.5913678100585937,-0.6847416748046875,-0.2595419847328244,-0.9007633587786259,0.21374045801526717,0
2.810002088546753,-9.648632690429688,0.28490999755859375,-1.7621324218749999,-1.3587786259541985,0.732824427480916,-0.366412213740458,-9.655815295410155,-0.4836287353515625,-0.16041151123046873,-0.04580152671755725,-1.0076335877862594,-0.10687022900763359,-9.852139831542969,0.8762778076171874,-0.2154781494140625,-0.07633587786259542,-0.8396946564885496,-0.16793893129770993,0
2.8200016021728516,-9.658209497070311,0.296881005859375,-1.8148048583984373,-1.1755725190839694,0.7480916030534351,-0.42748091603053434,-9.6151138671875,-0.39264907226562495,-0.055066638183593745,-0.3511450381679389,-1.0381679389312977,-0.2900763358778626,-9.81862100830078,0.7685387329101562,-0.3447650390625,-0.1984732824427481,-0.5648854961832062,-0.061068702290076333,0
2.8300023078918457,-9.785102185058593,0.3232172241210937,-1.6424223388671875,-1.4351145038167938,0.732824427480916,-0.366412213740458,-9.682151513671874,-0.3136404174804687,-0.09576806640624999,-0.5343511450381679,-0.7786259541984732,-0.1984732824427481,-9.629479077148437,0.8690952026367187,-0.02154781494140625,-0.8091603053435115,-1.618320610687023,-0.33587786259541985,0
2.8400022983551025,-9.655815295410155,0.2657563842773437,-1.5705962890624998,-1.5877862595419847,0.32061068702290074,-0.3969465648854962,-9.629479077148437,-0.3327940307617187,-0.0430956298828125,-0.4580152671755725,-0.7633587786259542,-0.32061068702290074,-9.854534033203125,0.622492431640625,-0.6105214233398437,0.549618320610687,-0.7633587786259542,-0.2748091603053435,0
2.850001573562622,-9.74200655517578,0.239420166015625,-1.3024457031249999,-1.633587786259542,0.9770992366412213,-0.2595419847328244,-9.634267480468749,-0.4477157104492187,0.06943184814453125,-0.7175572519083969,-0.7480916030534351,-0.07633587786259542,-9.725247143554688,0.63206923828125,-0.2609679809570312,-0.48854961832061067,-1.1450381679389312,-0.12213740458015267,0
2.860001802444458,-9.78031378173828,0.258573779296875,-1.3958195678710936,-1.4351145038167938,0.5801526717557252,-0.4580152671755725,-9.651026892089844,-0.45010991210937495,-0.11252747802734374,-1.0381679389312977,-1.0076335877862594,-0.0916030534351145,-9.8449572265625,0.7517793212890624,-0.08858546142578125,-0.5343511450381679,-0.5648854961832062,-0.12213740458015267,0
2.870002031326294,-9.6917283203125,0.19153613281249998,-1.5538368774414062,-1.4198473282442747,0.9465648854961832,0.04580152671755725,-9.732429748535155,-0.36631285400390623,0.033518823242187495,-0.7938931297709924,-0.732824427480916,-0.183206106870229,-9.72285294189453,0.5339069702148437,-0.603338818359375,-0.9770992366412213,-1.2061068702290076,-0.3969465648854962,0
2.880002021789551,-9.72285294189453,0.15322890625,-1.659181750488281,-1.3435114503816794,0.7175572519083969,-0.3053435114503817,-9.665392102050781,-0.34715924072265625,0.0909796630859375,-0.8702290076335878,-0.9312977099236641,-0.4580152671755725,-9.667786303710937,0.5315127685546874,-0.38307226562499996,-0.7938931297709924,-1.1145038167938932,0.07633587786259542,0
2.8900022506713867,-9.694122521972655,0.2154781494140625,-1.8052280517578123,-1.251908396946565,0.8549618320610687,-0.16793893129770993,-9.823409411621093,-0.316034619140625,-0.00239420166015625,-0.6259541984732825,-0.9312977099236641,-0.48854961832061067,-9.737218151855469,0.9792284790039062,0.23223756103515625,0.21374045801526717,-1.6030534351145038,-0.2748091603053435,0
2.9000020027160645,-9.665392102050781,0.20350714111328125,-1.6208745239257811,-1.2366412213740459,0.8702290076335878,-0.3511450381679389,-9.847351428222655,-0.38307226562499996,-0.028730419921875,-0.549618320610687,-0.9465648854961832,-0.48854961832061067,-9.928754284667969,0.42377369384765623,-0.6248866333007812,0.6564885496183206,-1.2061068702290076,-0.44274809160305345,0
2.910001516342163,-9.782707983398437,0.26815058593749996,-1.3958195678710936,-1.251908396946565,0.8396946564885496,-0.3053435114503817,-9.519345800781249,-0.45010991210937495,-0.15083470458984374,-0.33587786259541985,-1.618320610687023,0.015267175572519083,-9.713276135253906,0.7637503295898437,-0.44053310546874996,-0.0916030534351145,-1.7099236641221374,-0.2595419847328244,0
2.920001983642578,-9.7683427734375,0.2537853759765625,-1.5945383056640625,-1.083969465648855,1.099236641221374,-0.13740458015267176,-9.739612353515625,-0.6057330200195312,-0.24181436767578124,-0.13740458015267176,-1.6030534351145038,-0.2748091603053435,-9.718064538574218,0.8164227661132812,-0.15562310791015624,0.030534351145038167,-1.4351145038167938,-0.2595419847328244,0
2.930001974105835,-9.605537060546874,0.2705447875976562,-1.7669208251953124,-1.0076335877862594,0.9770992366412213,-0.8091603053435115,-9.627084875488281,-0.4836287353515625,-0.13646949462890623,-0.10687022900763359,-1.083969465648855,0.21374045801526717,-9.572018237304688,0.6847416748046875,-0.2442085693359375,-0.732824427480916,-1.2671755725190839,-0.366412213740458,0
2.9400017261505127,-9.677363110351562,0.25139117431640623,-1.649604943847656,-0.8854961832061069,0.9312977099236641,-0.1984732824427481,-9.624690673828125,-0.4477157104492187,-0.06943184814453125,-0.2900763358778626,-1.4809160305343512,-0.16793893129770993,-9.777919580078125,0.7685387329101562,-0.2059013427734375,-0.13740458015267176,-1.1908396946564885,-0.061068702290076333,0
2.9500017166137695,-9.677363110351562,0.2561795776367187,-1.7717092285156248,-0.8549618320610687,0.916030534351145,-0.015267175572519083,-9.730035546875,-0.49799394531249996,-0.2442085693359375,-0.4580152671755725,-1.1450381679389312,-0.061068702290076333,-9.686939916992188,0.565031591796875,-0.3758896606445312,-0.12213740458015267,-1.251908396946565,0.030534351145038167,0
2.9600017070770264,-9.648632690429688,0.22744915771484372,-1.7118541870117185,-0.6564885496183206,1.0229007633587786,-0.04580152671755725,-9.720458740234374,-0.5434837768554687,-0.21068974609375,0.0,-1.3740458015267176,-0.12213740458015267,-9.698910925292969,0.7613561279296874,-0.062249243164062495,-0.10687022900763359,-1.5114503816793894,-0.07633587786259542,0
2.970001697540283,-9.660603698730467,0.26336218261718747,-1.678335363769531,-0.7786259541984732,0.8854961832061069,-0.15267175572519084,-9.593566052246093,-0.44532150878906246,-0.1580173095703125,-0.030534351145038167,-1.3893129770992367,-0.030534351145038167,-9.947907897949218,0.8571241943359375,0.2154781494140625,0.7633587786259542,-0.9770992366412213,-0.13740458015267176,0
2.98000168800354,-9.713276135253906,0.22505495605468748,-1.6472107421875,-0.44274809160305345,0.8549618320610687,-0.16793893129770993,-9.64623848876953,-0.354341845703125,0.00239420166015625,0.04580152671755725,-1.099236641221374,-0.2748091603053435,-9.9215716796875,0.44532150878906246,-0.3806780639648437,0.5954198473282443,-1.1297709923664123,-0.16793893129770993,0
2.990001916885376,-9.715670336914062,0.21068974609375,-1.6352397338867186,-0.4580152671755725,0.7786259541984732,-0.44274809160305345,-9.777919580078125,-0.3902548706054687,-0.20350714111328125,0.33587786259541985,-1.1297709923664123,0.13740458015267176,-9.74200655517578,0.6488286499023437,-0.21068974609375,0.4732824427480916,-1.5267175572519085,-0.21374045801526717,0
3.0000014305114746,-9.763554370117188,0.27293898925781246,-1.5442600708007812,-0.6717557251908397,1.0076335877862594,-0.32061068702290074,-9.720458740234374,-0.49320554199218747,0.00718260498046875,0.07633587786259542,-1.4045801526717556,0.07633587786259542,-9.87608184814453,0.3280056274414062,-0.5410895751953124,1.1603053435114503,-0.732824427480916,-0.32061068702290074,0
3.0100018978118896,-9.6151138671875,0.18914193115234373,-1.9321207397460936,-0.5648854961832062,1.0534351145038168,0.030534351145038167,-9.734823950195311,-0.45489831542968745,-0.09816226806640624,0.33587786259541985,-1.282442748091603,-0.2595419847328244,-9.93354268798828,0.44053310546874996,-0.6871358764648438,1.3282442748091603,-0.8244274809160306,0.07633587786259542,1
3.0200035572052,-9.770736975097655,0.34237083740234375,-1.2473790649414063,-0.5343511450381679,1.1145038167938932,-0.16793893129770993,-9.725247143554688,-0.4285620971679687,-0.062249243164062495,0.21374045801526717,-1.0229007633587786,-0.24427480916030533,-9.828197814941406,0.5626373901367188,-0.1867477294921875,1.6793893129770991,-0.3053435114503817,0.061068702290076333,1
3.0300018787384033,-9.662997900390625,0.18435352783203124,-1.7118541870117185,-0.33587786259541985,1.083969465648855,-0.2900763358778626,-9.715670336914062,-0.4333505004882812,-0.201112939453125,0.24427480916030533,-1.2366412213740459,-0.04580152671755725,-9.469067565917967,0.7230489013671875,-0.49320554199218747,-1.3740458015267176,-1.786259541984733,-0.42748091603053434,1
3.040003776550293,-9.662997900390625,0.23223756103515625,-1.7190367919921874,-0.5190839694656488,0.9465648854961832,-0.3511450381679389,-9.679757312011718,-0.44532150878906246,-0.21068974609375,0.015267175572519083,-1.2213740458015268,-0.030534351145038167,-9.629479077148437,0.5674257934570313,-0.584185205078125,-0.3511450381679389,-1.5419847328244274,-0.1984732824427481,1
3.050001859664917,-9.629479077148437,0.2609679809570312,-1.7501614135742187,-0.4732824427480916,0.9770992366412213,-0.3053435114503817,-9.636661682128906,-0.46686932373046874,-0.1005564697265625,-0.015267175572519083,-1.465648854961832,-0.0,-9.639055883789062,0.7733271362304687,-0.3399766357421875,-0.2748091603053435,-1.9389312977099236,-0.21374045801526717,1
3.060001850128174,-9.662997900390625,0.258573779296875,-1.5562310791015623,-0.366412213740458,0.8854961832061069,0.061068702290076333,-9.662997900390625,-0.4644751220703125,-0.0430956298828125,0.5343511450381679,-1.3740458015267176,-0.015267175572519083,-9.789890588378906,0.5578489868164063,-0.38786066894531246,0.3511450381679389,-1.282442748091603,-0.2595419847328244,1
3.0700020790100098,-9.665392102050781,0.22505495605468748,-1.7956512451171873,-0.48854961832061067,0.9007633587786259,-0.42748091603053434,-9.698910925292969,-0.39983167724609375,-0.1484405029296875,0.8549618320610687,-1.297709923664122,0.16793893129770993,-9.658209497070311,0.8259995727539062,-0.22026655273437498,0.5038167938931297,-1.6946564885496183,0.030534351145038167,1
3.0800018310546875,-9.6917283203125,0.27293898925781246,-1.707065783691406,-0.4732824427480916,1.0076335877862594,-0.183206106870229,-9.756371765136718,-0.44532150878906246,-0.07422025146484375,0.42748091603053434,-1.3282442748091603,-0.15267175572519084,-9.560047229003906,0.6153098266601562,-0.5602431884765625,-0.21374045801526717,-1.465648854961832,-0.0916030534351145,1
3.0900015830993652,-9.775525378417969,0.32561142578124996,-1.4437036010742186,-0.7938931297709924,0.9923664122137404,-0.12213740458015267,-9.617508068847656,-0.49320554199218747,-0.1292868896484375,0.6106870229007634,-1.0381679389312977,0.10687022900763359,-9.828197814941406,0.8499415893554687,-0.22266075439453123,0.5190839694656488,-1.099236641221374,-0.030534351145038167,1
3.1000025272369385,-9.665392102050781,0.2753331909179687,-1.7573440185546874,-0.6717557251908397,0.9618320610687023,-0.015267175572519083,-9.80665,-0.3806780639648437,-0.05985504150390625,0.07633587786259542,-1.2061068702290076,0.061068702290076333,-9.751583361816406,0.3232172241210937,-0.7326257080078125,-0.5801526717557252,-1.2061068702290076,0.2595419847328244,1
3.110002040863037,-9.718064538574218,0.2657563842773437,-1.5466542724609373,-0.6717557251908397,0.8244274809160306,-0.030534351145038167,-9.775525378417969,-0.33758243408203126,-0.17956512451171874,0.22900763358778625,-1.4809160305343512,-0.0916030534351145,-9.639055883789062,0.6153098266601562,-0.6871358764648438,-0.5801526717557252,-1.7709923664122138,0.13740458015267176,1
3.1200029850006104,-9.816226806640625,0.2753331909179687,-1.369483349609375,-0.9465648854961832,0.7022900763358778,-0.16793893129770993,-9.627084875488281,-0.4429273071289062,-0.105344873046875,-0.061068702290076333,-1.2213740458015268,-0.3511450381679389,-9.83777462158203,0.7230489013671875,-0.18914193115234373,-0.3816793893129771,-1.6793893129770991,0.32061068702290074,1
3.1300015449523926,-9.744400756835937,0.239420166015625,-1.5849614990234373,-0.8396946564885496,0.7633587786259542,0.3053435114503817,-9.588777648925781,-0.430956298828125,-0.143652099609375,-0.16793893129770993,-1.3893129770992367,0.15267175572519084,-9.70369932861328,0.6727706665039062,-0.5003881469726562,-1.6946564885496183,-1.5725190839694656,0.32061068702290074,1
3.1400036811828613,-9.689334118652344,0.33518823242187495,-1.5705962890624998,-1.0076335877862594,0.7786259541984732,-0.16793893129770993,-9.725247143554688,-0.33758243408203126,-0.18914193115234373,-0.7633587786259542,-1.4045801526717556,-0.1984732824427481,-9.847351428222655,0.6416460449218749,-0.6584054565429687,-0.9312977099236641,-1.282442748091603,0.13740458015267176,1
3.1500017642974854,-9.600748657226562,0.22266075439453123,-1.9009961181640624,-0.9007633587786259,0.8854961832061069,-0.1984732824427481,-9.696516723632811,-0.43574470214843747,-0.1005564697265625,-0.5801526717557252,-1.251908396946565,-0.21374045801526717,-9.811438403320311,0.40940848388671874,-0.41898529052734373,-0.8702290076335878,-0.9007633587786259,0.16793893129770993,1
3.1600019931793213,-9.715670336914062,0.2609679809570312,-1.5777788940429687,-1.0076335877862594,0.8702290076335878,-0.13740458015267176,-9.648632690429688,-0.33758243408203126,-0.062249243164062495,-0.732824427480916,-1.099236641221374,-0.183206106870229,-10.149020837402343,0.7302315063476562,-0.27293898925781246,0.7022900763358778,-0.5648854961832062,0.42748091603053434,1
3.1700022220611572,-9.785102185058593,0.19153613281249998,-1.455674609375,-1.1145038167938932,0.8244274809160306,-0.24427480916030533,-9.68454571533203,-0.4740519287109375,-0.033518823242187495,-0.1984732824427481,-1.0076335877862594,-0.21374045801526717,-9.7683427734375,0.5578489868164063,-0.35194764404296874,-0.07633587786259542,-1.5572519083969465,-0.015267175572519083,1
3.180001974105835,-9.706093530273437,0.20350714111328125,-1.7094599853515624,-1.4351145038167938,0.7480916030534351,-0.42748091603053434,-9.715670336914062,-0.3806780639648437,-0.016759411621093748,0.04580152671755725,-0.9618320610687023,-0.0,-9.72285294189453,0.5195417602539062,-0.16041151123046873,-0.04580152671755725,-1.3893129770992367,0.15267175572519084,1
3.190001964569092,-9.694122521972655,0.1292868896484375,-1.8315642700195311,-1.1908396946564885,0.6259541984732825,-0.22900763358778625,-9.689334118652344,-0.4070142822265625,-0.143652099609375,-0.7786259541984732,-0.9465648854961832,-0.21374045801526717,-9.76116016845703,0.44532150878906246,-0.8643067993164062,0.061068702290076333,-1.6641221374045803,0.15267175572519084,1
3.2000014781951904,-9.763554370117188,0.19871873779296872,-1.3814543579101561,-1.1297709923664123,0.7786259541984732,-0.3969465648854962,-9.694122521972655,-0.411802685546875,-0.08379705810546874,-0.3969465648854962,-1.1908396946564885,-0.2748091603053435,-9.789890588378906,0.612915625,-0.5123591552734374,-0.8396946564885496,-1.4961832061068703,0.4732824427480916,1
3.2100024223327637,-9.782707983398437,0.33039982910156246,-1.4101847778320311,-0.9770992366412213,0.8396946564885496,-0.21374045801526717,-9.586383447265625,-0.36631285400390623,-0.033518823242187495,-0.2900763358778626,-1.251908396946565,0.07633587786259542,-9.842563024902343,0.6272808349609375,-0.086191259765625,0.0,-0.8396946564885496,0.13740458015267176,0
3.220001459121704,-9.658209497070311,0.2561795776367187,-1.7812860351562498,-0.7786259541984732,0.9312977099236641,-0.2748091603053435,-9.78031378173828,-0.354341845703125,-0.12449848632812499,-0.4732824427480916,-1.1603053435114503,-0.3969465648854962,-9.995791931152343,0.7445967163085937,-0.40940848388671874,0.13740458015267176,-1.282442748091603,0.13740458015267176,0
